sep=,
PacketCounter,SampleTimeFine,Euler_X,Euler_Y,Euler_Z,Acc_X,Acc_Y,Acc_Z,Gyr_X,Gyr_Y,Gyr_Z,
0, 403891385, 0.6789839267730713, 4.563831329345703, 12.3720703125, 0, 0, 0, 0, 0, 0, 
1, 403899718, 0.6799054741859436, 4.567625999450684, 12.370530128479004, -0.7121155858039856, 0.10724257677793503, 9.548444747924805, -0.8795031309127808, -0.2797970771789551, -0.015432573854923248, 
2, 403908051, 0.6825985312461853, 4.5697021484375, 12.369193077087402, -0.7084104418754578, 0.12558960914611816, 9.430265426635742, -0.6700811982154846, -0.4888860583305359, 0.017007851973176003, 
3, 403916384, 0.6823781728744507, 4.568321228027344, 12.367341995239258, -0.7203771471977234, 0.14493806660175323, 9.425559043884277, -1.0131583213806152, -0.9006093144416809, -0.058720629662275314, 
4, 403924717, 0.6797003149986267, 4.565417766571045, 12.366720199584961, -0.7319231033325195, 0.08563178777694702, 9.4533109664917, -1.3192996978759766, -1.0856209993362427, 0.1075797975063324, 
5, 403933050, 0.6746225953102112, 4.562835216522217, 12.366846084594727, -0.7414710521697998, 0.10486330091953278, 9.550729751586914, -1.6166553497314453, -1.042486548423767, 0.18936604261398315, 
6, 403941383, 0.6701673269271851, 4.5624918937683105, 12.368103981018066, -0.7874605059623718, 0.11126948893070221, 9.601155281066895, -1.5511338710784912, -0.7748690247535706, 0.33165305852890015, 
7, 403949716, 0.6655896306037903, 4.5633134841918945, 12.369933128356934, -0.7798274755477905, 0.12752129137516022, 9.655172348022461, -1.5752111673355103, -0.6312243938446045, 0.40952035784721375, 
8, 403958049, 0.664398193359375, 4.566227912902832, 12.372306823730469, -0.7724998593330383, 0.1464616060256958, 9.618406295776367, -1.1701221466064453, -0.38304805755615234, 0.45854610204696655, 
9, 403966382, 0.6646329760551453, 4.568645477294922, 12.374762535095215, -0.8070552945137024, 0.1267126202583313, 9.606847763061523, -1.0018879175186157, -0.4393225312232971, 0.47076401114463806, 
10, 403974715, 0.6653887033462524, 4.570249557495117, 12.377191543579102, -0.7966264486312866, 0.11300061643123627, 9.555390357971191, -0.9364179968833923, -0.5393973588943481, 0.46920156478881836, 
11, 403983048, 0.6678223609924316, 4.570165157318115, 12.37857437133789, -0.7816625237464905, 0.08722911030054092, 9.534969329833984, -0.7285072207450867, -0.7408533096313477, 0.33984965085983276, 
12, 403991381, 0.6695958375930786, 4.568477153778076, 12.378049850463867, -0.7604687809944153, 0.0970354676246643, 9.549381256103516, -0.7855629324913025, -0.9387104511260986, 0.11888846009969711, 
13, 403999714, 0.6690919995307922, 4.565468788146973, 12.377030372619629, -0.7642168998718262, 0.09991811215877533, 9.522473335266113, -1.0580215454101562, -1.0949571132659912, 0.06855649501085281, 
14, 404008047, 0.666492223739624, 4.561943531036377, 12.373664855957031, -0.7472007274627686, 0.08196353167295456, 9.575794219970703, -1.2840543985366821, -1.1630783081054688, -0.2176569402217865, 
15, 404016380, 0.6627010703086853, 4.55961275100708, 12.37047290802002, -0.7284854650497437, 0.07835225015878677, 9.564234733581543, -1.431016206741333, -1.0169620513916016, -0.19195307791233063, 
16, 404024713, 0.6594571471214294, 4.558735370635986, 12.368912696838379, -0.7390531897544861, 0.06459732353687286, 9.609443664550781, -1.3783787488937378, -0.8434510827064514, -0.006173030007630587, 
17, 404033046, 0.6580557227134705, 4.559841632843018, 12.368303298950195, -0.7321721315383911, 0.08893129974603653, 9.628349304199219, -1.1691489219665527, -0.6003848910331726, 0.1077846959233284, 
18, 404041379, 0.6605263352394104, 4.562102794647217, 12.370173454284668, -0.7258921265602112, 0.11159851402044296, 9.599458694458008, -0.7262020111083984, -0.4625546634197235, 0.3980964422225952, 
19, 404049712, 0.6646522879600525, 4.564306735992432, 12.372113227844238, -0.7432730793952942, 0.12935231626033783, 9.554654121398926, -0.5298304557800293, -0.4650264382362366, 0.4126068949699402, 
20, 404058045, 0.667607843875885, 4.565887451171875, 12.374602317810059, -0.7323793768882751, 0.1569693386554718, 9.600288391113281, -0.6743587851524353, -0.5419332385063171, 0.47629672288894653, 
21, 404066378, 0.6696111559867859, 4.567166805267334, 12.376053810119629, -0.7454120516777039, 0.15865720808506012, 9.599358558654785, -0.7795948386192322, -0.5777034163475037, 0.35302817821502686, 
22, 404074711, 0.66889488697052, 4.56714391708374, 12.375500679016113, -0.7612984776496887, 0.15265601873397827, 9.542143821716309, -1.0854672193527222, -0.7388554811477661, 0.11290755122900009, 
23, 404083044, 0.6655476093292236, 4.56591272354126, 12.37409782409668, -0.7470500469207764, 0.13475240767002106, 9.545762062072754, -1.3958605527877808, -0.8822951912879944, 0.015317313373088837, 
24, 404091377, 0.6616517901420593, 4.565096378326416, 12.371932029724121, -0.7702252864837646, 0.1219702810049057, 9.552593231201172, -1.4503291845321655, -0.8365353345870972, -0.07812342047691345, 
25, 404099710, 0.6603906750679016, 4.565881252288818, 12.370418548583984, -0.7616490125656128, 0.09481808543205261, 9.573543548583984, -1.1423051357269287, -0.6409834027290344, -0.024346327409148216, 
26, 404108043, 0.6593621373176575, 4.567783355712891, 12.370773315429688, -0.748995840549469, 0.09889508783817291, 9.56356430053711, -1.1317777633666992, -0.5068929195404053, 0.21825888752937317, 
27, 404116376, 0.6598447561264038, 4.568338871002197, 12.37147331237793, -0.7752179503440857, 0.10729264467954636, 9.554789543151855, -0.9565250873565674, -0.6649839282035828, 0.28062957525253296, 
28, 404124709, 0.6604819297790527, 4.570363998413086, 12.373475074768066, -0.7854036092758179, 0.09664206206798553, 9.526277542114258, -0.9460488557815552, -0.4892190396785736, 0.4180242717266083, 
29, 404133042, 0.6605089902877808, 4.57123327255249, 12.37592601776123, -0.7927996516227722, 0.0943889170885086, 9.548322677612305, -1.0251073837280273, -0.6253460049629211, 0.451130747795105, 
30, 404141375, 0.6610050201416016, 4.571866512298584, 12.37819766998291, -0.7756900787353516, 0.13954481482505798, 9.565339088439941, -0.9664505124092102, -0.6567745804786682, 0.45166856050491333, 
31, 404149708, 0.6607087254524231, 4.571218013763428, 12.378582000732422, -0.7744025588035583, 0.11682738363742828, 9.613077163696289, -1.0466233491897583, -0.8096915483474731, 0.22654511034488678, 
32, 404158041, 0.6603175401687622, 4.5695624351501465, 12.378623008728027, -0.7587378025054932, 0.12626197934150696, 9.601639747619629, -1.0526937246322632, -0.9339205622673035, 0.18858478963375092, 
33, 404166374, 0.6594980955123901, 4.567265033721924, 12.377140998840332, -0.7340891361236572, 0.12661246955394745, 9.59302806854248, -1.0919348001480103, -1.010635256767273, 0.017661014571785927, 
34, 404174707, 0.6602573394775391, 4.565737724304199, 12.376373291015625, -0.7214500308036804, 0.121526800096035, 9.545289993286133, -0.9052967429161072, -0.9204092025756836, 0.0890607014298439, 
35, 404183040, 0.6609125137329102, 4.564769268035889, 12.374825477600098, -0.7200194597244263, 0.09443178027868271, 9.536641120910645, -0.9140312075614929, -0.8507639765739441, -0.0016777323326095939, 
36, 404191373, 0.6607710123062134, 4.56516170501709, 12.374255180358887, -0.7135890126228333, 0.06501944363117218, 9.484320640563965, -1.0156043767929077, -0.6884337663650513, 0.11089682579040527, 
37, 404199706, 0.6603261828422546, 4.5648393630981445, 12.373380661010742, -0.7500185370445251, 0.06947547197341919, 9.509381294250488, -1.0514131784439087, -0.7729095816612244, 0.0749344453215599, 
38, 404208039, 0.6603001952171326, 4.564788818359375, 12.3740873336792, -0.7645888328552246, 0.05930422246456146, 9.521943092346191, -1.0139905214309692, -0.7405074834823608, 0.2649663984775543, 
39, 404216372, 0.6617209911346436, 4.565704822540283, 12.375395774841309, -0.7721563577651978, 0.10803671926259995, 9.577300071716309, -0.8484458923339844, -0.6216830611228943, 0.32769569754600525, 
40, 404224705, 0.6637019515037537, 4.56731653213501, 12.37863540649414, -0.754024088382721, 0.1124999150633812, 9.640666007995605, -0.797396719455719, -0.5382062792778015, 0.5632697939872742, 
41, 404233038, 0.6655634045600891, 4.5682597160339355, 12.382258415222168, -0.7731579542160034, 0.1174568310379982, 9.642576217651367, -0.818477213382721, -0.6138707399368286, 0.6218240261077881, 
42, 404241371, 0.6672481894493103, 4.568869113922119, 12.383305549621582, -0.7590880990028381, 0.141240194439888, 9.607505798339844, -0.8126372694969177, -0.6608728766441345, 0.30415624380111694, 
43, 404249704, 0.6703044772148132, 4.569054126739502, 12.383200645446777, -0.7615131139755249, 0.16241244971752167, 9.572964668273926, -0.6388190388679504, -0.7097705006599426, 0.17226852476596832, 
44, 404258037, 0.6720584630966187, 4.569007396697998, 12.381693840026855, -0.7668205499649048, 0.13825014233589172, 9.513566970825195, -0.7787879705429077, -0.7435171008110046, -0.0010886050295084715, 
45, 404266370, 0.6739680767059326, 4.569236755371094, 12.379537582397461, -0.7299190759658813, 0.13546055555343628, 9.513916969299316, -0.7572976350784302, -0.7084000706672668, -0.05925852805376053, 
46, 404274703, 0.6744616627693176, 4.568959712982178, 12.377676010131836, -0.7518353462219238, 0.11913774907588959, 9.532951354980469, -0.9279909133911133, -0.7712061405181885, -0.042839810252189636, 
47, 404283036, 0.6738588809967041, 4.567754745483398, 12.375859260559082, -0.7560483813285828, 0.10429559648036957, 9.554852485656738, -1.0621455907821655, -0.879516065120697, -0.0342206172645092, 
48, 404291369, 0.6734854578971863, 4.567561149597168, 12.375161170959473, -0.7480657696723938, 0.07871703803539276, 9.546542167663574, -1.0429860353469849, -0.7606658935546875, 0.0951184555888176, 
49, 404299702, 0.6738021373748779, 4.568314075469971, 12.376001358032227, -0.7537737488746643, 0.08895990997552872, 9.595316886901855, -0.976363480091095, -0.6408169865608215, 0.2860213816165924, 
50, 404308035, 0.6741779446601868, 4.569994926452637, 12.377902030944824, -0.7455622553825378, 0.10843709856271744, 9.584737777709961, -0.977785050868988, -0.5313032865524292, 0.40503793954849243, 
51, 404316368, 0.6737151145935059, 4.572078227996826, 12.380085945129395, -0.7581155300140381, 0.12823617458343506, 9.58858585357666, -1.082188606262207, -0.4801260232925415, 0.41641056537628174, 
52, 404324701, 0.672791600227356, 4.57420539855957, 12.381399154663086, -0.7668637037277222, 0.13787804543972015, 9.551011085510254, -1.127679467201233, -0.47787201404571533, 0.3345475196838379, 
53, 404333034, 0.6719979047775269, 4.575726509094238, 12.382781028747559, -0.7507695555686951, 0.12898722290992737, 9.554224014282227, -1.1161915063858032, -0.5479653477668762, 0.36212125420570374, 
54, 404341367, 0.6711793541908264, 4.576153755187988, 12.383097648620605, -0.7427154779434204, 0.11287901550531387, 9.546205520629883, -1.1050492525100708, -0.6841050386428833, 0.2166067659854889, 
55, 404349700, 0.6709132194519043, 4.576837062835693, 12.383490562438965, -0.7841089367866516, 0.10074779391288757, 9.574516296386719, -1.0413084030151367, -0.6508705019950867, 0.20645073056221008, 
56, 404358033, 0.6702992916107178, 4.576332092285156, 12.381926536560059, -0.7739948034286499, 0.12027508020401001, 9.54759407043457, -1.0632597208023071, -0.7981523275375366, -0.007107949815690517, 
57, 404366366, 0.6694849729537964, 4.57505464553833, 12.379982948303223, -0.7861904501914978, 0.13124752044677734, 9.50964069366455, -1.0852367877960205, -0.888980507850647, -0.054776038974523544, 
58, 404374699, 0.6673812866210938, 4.574111461639404, 12.378819465637207, -0.7717345356941223, 0.0766427144408226, 9.511385917663574, -1.2457611560821533, -0.8491246700286865, 0.04203295707702637, 
59, 404383032, 0.6657757759094238, 4.574105739593506, 12.377230644226074, -0.7807542681694031, 0.06912507116794586, 9.530948638916016, -1.1828781366348267, -0.7359353303909302, -0.017481714487075806, 
60, 404391365, 0.6657446026802063, 4.57468318939209, 12.378098487854004, -0.7569639086723328, 0.08398868143558502, 9.563916206359863, -1.0161552429199219, -0.6647534370422363, 0.28185904026031494, 
61, 404399698, 0.6656882166862488, 4.574252605438232, 12.380114555358887, -0.7795883417129517, 0.09051922708749771, 9.549717903137207, -1.0335215330123901, -0.7820409536361694, 0.439745157957077, 
62, 404408031, 0.6675229668617249, 4.574063777923584, 12.382183074951172, -0.7688590884208679, 0.09837304800748825, 9.616546630859375, -0.8050169944763184, -0.7553252577781677, 0.42762964963912964, 
63, 404416364, 0.6697331666946411, 4.574881076812744, 12.383210182189941, -0.7744025588035583, 0.1288226991891861, 9.615187644958496, -0.7500103712081909, -0.6330045461654663, 0.29181015491485596, 
64, 404424697, 0.6724456548690796, 4.575900077819824, 12.38273811340332, -0.7316213846206665, 0.1471339762210846, 9.664685249328613, -0.6746405959129333, -0.6138579845428467, 0.12151393294334412, 
65, 404433030, 0.675210177898407, 4.576530933380127, 12.380967140197754, -0.729675829410553, 0.1643294095993042, 9.623706817626953, -0.6562751531600952, -0.6603221893310547, -0.035898350179195404, 
66, 404441363, 0.6794751882553101, 4.577215194702148, 12.37887191772461, -0.7249478101730347, 0.12800727784633636, 9.583515167236328, -0.47359442710876465, -0.656326413154602, -0.07301337271928787, 
67, 404449696, 0.68026202917099, 4.577815055847168, 12.376436233520508, -0.7154415845870972, 0.1401885598897934, 9.513029098510742, -0.8910807967185974, -0.6638312935829163, -0.08817699551582336, 
68, 404458029, 0.6781660914421082, 4.578551769256592, 12.374198913574219, -0.7017583250999451, 0.10066910833120346, 9.461316108703613, -1.2342218160629272, -0.6505247354507446, -0.08908630162477493, 
69, 404466362, 0.6747812628746033, 4.5785746574401855, 12.373430252075195, -0.744024395942688, 0.08627758920192719, 9.515140533447266, -1.4038649797439575, -0.7304922938346863, 0.07682989537715912, 
70, 404474695, 0.6720119714736938, 4.579840660095215, 12.3749361038208, -0.7573501467704773, 0.06191501021385193, 9.513774871826172, -1.3518807888031006, -0.5815327167510986, 0.35826626420021057, 
71, 404483028, 0.6701707243919373, 4.58167028427124, 12.378378868103027, -0.7777858376502991, 0.08649217337369919, 9.583006858825684, -1.2604635953903198, -0.5082504153251648, 0.6056229472160339, 
72, 404491361, 0.6719449162483215, 4.583017826080322, 12.381595611572266, -0.8107890486717224, 0.1279214471578598, 9.587348937988281, -0.8240611553192139, -0.5690202116966248, 0.5626422762870789, 
73, 404499694, 0.6742390394210815, 4.584240436553955, 12.384440422058105, -0.8272048234939575, 0.13483108580112457, 9.642504692077637, -0.7600128054618835, -0.582378089427948, 0.5360547304153442, 
74, 404508027, 0.6778190732002258, 4.585533142089844, 12.3858642578125, -0.8012540936470032, 0.15479499101638794, 9.620481491088867, -0.5882437229156494, -0.5781003832817078, 0.34863534569740295, 
75, 404516360, 0.6813867688179016, 4.586156845092773, 12.385159492492676, -0.7808115482330322, 0.19660316407680511, 9.596055030822754, -0.5699679255485535, -0.6591311097145081, 0.07905833423137665, 
76, 404524693, 0.6812148690223694, 4.586475849151611, 12.383444786071777, -0.7725857496261597, 0.188041090965271, 9.488760948181152, -1.0089702606201172, -0.6997296214103699, -0.02610090561211109, 
77, 404533026, 0.6757491827011108, 4.585435390472412, 12.378706932067871, -0.7594148516654968, 0.15743964910507202, 9.4682035446167, -1.6155281066894531, -0.864288330078125, -0.3982885181903839, 
78, 404541359, 0.6665320992469788, 4.583359718322754, 12.374021530151367, -0.7327084541320801, 0.08685017377138138, 9.4338960647583, -2.065775156021118, -0.9916679263114929, -0.3784887492656708, 
79, 404549692, 0.6589682102203369, 4.580746650695801, 12.371809005737305, -0.7374390363693237, 0.007601125165820122, 9.494817733764648, -1.8924949169158936, -1.0489925146102905, -0.08986753970384598, 
80, 404558025, 0.6564561724662781, 4.578632354736328, 12.372771263122559, -0.7418857216835022, 0.03105764463543892, 9.602105140686035, -1.3146635293960571, -0.98818439245224, 0.29630547761917114, 
81, 404566358, 0.6593317985534668, 4.579253196716309, 12.376133918762207, -0.7655473351478577, 0.07579152286052704, 9.674141883850098, -0.6970016956329346, -0.652714729309082, 0.6200182437896729, 
82, 404574691, 0.6642549633979797, 4.580491065979004, 12.380427360534668, -0.7888941764831543, 0.06931104511022568, 9.672452926635742, -0.4548960328102112, -0.5808924436569214, 0.6925833225250244, 
83, 404583024, 0.6707974076271057, 4.583217144012451, 12.383928298950195, -0.7728861570358276, 0.09644178301095963, 9.698962211608887, -0.2544901967048645, -0.40097805857658386, 0.5991169810295105, 
84, 404591357, 0.6758541464805603, 4.585168361663818, 12.383844375610352, -0.7476008534431458, 0.12165555357933044, 9.662382125854492, -0.39708468317985535, -0.5018213391304016, 0.1664925515651703, 
85, 404599690, 0.6782210469245911, 4.586861610412598, 12.382339477539062, -0.7379802465438843, 0.13513150811195374, 9.55040454864502, -0.7057874202728271, -0.5322253704071045, -0.030621815472841263, 
86, 404608023, 0.6758166551589966, 4.588923454284668, 12.377421379089355, -0.6813295483589172, 0.11605491489171982, 9.482365608215332, -1.247272253036499, -0.49470052123069763, -0.410967618227005, 
87, 404616356, 0.6711032390594482, 4.589617729187012, 12.372490882873535, -0.7039583325386047, 0.0885809138417244, 9.41439151763916, -1.5233553647994995, -0.6560317873954773, -0.41256844997406006, 
88, 404624689, 0.6670801639556885, 4.588781356811523, 12.36852741241455, -0.6843489408493042, 0.058061160147190094, 9.44460678100586, -1.4496760368347168, -0.841773509979248, -0.2944996654987335, 
89, 404633022, 0.66440349817276, 4.588786602020264, 12.366808891296387, -0.7130669355392456, 0.05210130661725998, 9.557207107543945, -1.3108468055725098, -0.7343472838401794, -0.016969429329037666, 
90, 404641355, 0.6653498411178589, 4.5919270515441895, 12.368115425109863, -0.7314713597297668, 0.08042646199464798, 9.623126029968262, -0.9038622975349426, -0.35710084438323975, 0.3299625813961029, 
91, 404649688, 0.6711799502372742, 4.597012519836426, 12.371374130249023, -0.7626790404319763, 0.09092693775892258, 9.648276329040527, -0.3401954472064972, -0.11722353845834732, 0.5883845686912537, 
92, 404658021, 0.679219663143158, 4.602534770965576, 12.375591278076172, -0.7417783737182617, 0.11206351965665817, 9.619793891906738, -0.08067203313112259, -0.06709648668766022, 0.6754984855651855, 
93, 404666354, 0.6860349774360657, 4.606841564178467, 12.379765510559082, -0.7663126587867737, 0.1697441190481186, 9.659049034118652, -0.2283252775669098, -0.21006233990192413, 0.6703885197639465, 
94, 404674687, 0.6912062764167786, 4.61015510559082, 12.381383895874023, -0.7949951887130737, 0.17553113400936127, 9.632190704345703, -0.3987112045288086, -0.33516228199005127, 0.3686785101890564, 
95, 404683020, 0.6941289305686951, 4.611143589019775, 12.38222599029541, -0.7452618479728699, 0.14410832524299622, 9.6182279586792, -0.6656115055084229, -0.6121289730072021, 0.29378244280815125, 
96, 404691353, 0.6970974802970886, 4.6099772453308105, 12.382404327392578, -0.7815410494804382, 0.13306419551372528, 9.575745582580566, -0.6499611735343933, -0.8753408193588257, 0.20390211045742035, 
97, 404699686, 0.7008541822433472, 4.60767936706543, 12.381380081176758, -0.7695814967155457, 0.11961699277162552, 9.54923152923584, -0.54420006275177, -1.0098155736923218, 0.038946446031332016, 
98, 404708019, 0.7002518773078918, 4.6043381690979, 12.378808975219727, -0.7645745873451233, 0.13829305768013, 9.519733428955078, -1.0514386892318726, -1.1411397457122803, -0.12425464391708374, 
99, 404716352, 0.7005365490913391, 4.6018171310424805, 12.377157211303711, -0.7945663928985596, 0.16041681170463562, 9.474784851074219, -0.9577290415763855, -1.0371588468551636, -0.003778098849579692, 
100, 404724685, 0.6975967884063721, 4.600548267364502, 12.376005172729492, -0.7641596794128418, 0.15087491273880005, 9.445651054382324, -1.3456053733825684, -0.8891853094100952, 0.04231470823287964, 
101, 404733018, 0.692933201789856, 4.600146770477295, 12.377110481262207, -0.7792314887046814, 0.1176125556230545, 9.457249641418457, -1.5717662572860718, -0.779569149017334, 0.25684672594070435, 
102, 404741351, 0.6878708004951477, 4.600592136383057, 12.37808609008789, -0.8053297400474548, 0.08692406117916107, 9.515753746032715, -1.6217652559280396, -0.6813130974769592, 0.2953193187713623, 
103, 404749684, 0.6850113272666931, 4.603593826293945, 12.380494117736816, -0.7882721424102783, 0.1194094717502594, 9.600645065307617, -1.3750745058059692, -0.36902427673339844, 0.49608367681503296, 
104, 404758017, 0.68442702293396, 4.607685565948486, 12.384035110473633, -0.7797170877456665, 0.16086743772029877, 9.697258949279785, -1.108763337135315, -0.2385966032743454, 0.5984381437301636, 
105, 404766350, 0.6862341165542603, 4.612634181976318, 12.38691234588623, -0.8117043375968933, 0.19198951125144958, 9.738302230834961, -0.8161847591400146, -0.13505105674266815, 0.5061116218566895, 
106, 404774683, 0.6884070634841919, 4.616769313812256, 12.389805793762207, -0.8131999373435974, 0.19140280783176422, 9.681451797485352, -0.7717313170433044, -0.23480571806430817, 0.5199305415153503, 
107, 404783016, 0.6905995011329651, 4.618795871734619, 12.390761375427246, -0.8028921484947205, 0.14995232224464417, 9.671302795410156, -0.7548772096633911, -0.4889245331287384, 0.30584678053855896, 
108, 404791349, 0.6914365291595459, 4.618329048156738, 12.389786720275879, -0.7990583181381226, 0.11177756637334824, 9.620553970336914, -0.8939111828804016, -0.792709231376648, 0.06366418302059174, 
109, 404799682, 0.6922585964202881, 4.617063045501709, 12.38874626159668, -0.7904821038246155, 0.05512696132063866, 9.577363014221191, -0.8970617651939392, -0.8859451413154602, 0.046784400939941406, 
110, 404808015, 0.6926878094673157, 4.613281726837158, 12.3876371383667, -0.7917124032974243, 0.039869945496320724, 9.538687705993652, -0.9427703619003296, -1.1913052797317505, 0.05294463038444519, 
111, 404816348, 0.6941994428634644, 4.606588363647461, 12.385839462280273, -0.7770732641220093, 0.01973835937678814, 9.542550086975098, -0.8069892525672913, -1.5387623310089111, -0.02498668245971203, 
112, 404824681, 0.6994155645370483, 4.599234104156494, 12.384803771972656, -0.7798744440078735, 0.0016308481572195888, 9.562414169311523, -0.36893466114997864, -1.6192678213119507, 0.06687876582145691, 
113, 404833014, 0.707970380783081, 4.591670513153076, 12.384775161743164, -0.7820990085601807, 0.00873362086713314, 9.572070121765137, 0.019863838329911232, -1.6410014629364014, 0.19427114725112915, 
114, 404841347, 0.722113847732544, 4.5862650871276855, 12.38561725616455, -0.7725785970687866, -0.004391845781356096, 9.635859489440918, 0.6842202544212341, -1.382681965827942, 0.2903245687484741, 
115, 404849680, 0.7418990135192871, 4.581096172332764, 12.386388778686523, -0.7770931124687195, 0.0011990831699222326, 9.655379295349121, 1.360576868057251, -1.351061224937439, 0.28718677163124084, 
116, 404858013, 0.767108678817749, 4.576037406921387, 12.387436866760254, -0.7881617546081543, -0.009678807109594345, 9.616277694702148, 2.010896921157837, -1.3417634963989258, 0.31139230728149414, 
117, 404866346, 0.792359471321106, 4.571159839630127, 12.388264656066895, -0.828015923500061, 0.09010591357946396, 9.606532096862793, 2.0193748474121094, -1.3169429302215576, 0.2503022849559784, 
118, 404874679, 0.8204272985458374, 4.564825057983398, 12.385664939880371, -0.7708565592765808, -0.07866028696298599, 9.52436637878418, 2.3887834548950195, -1.499290943145752, -0.11901655793190002, 
119, 404883012, 0.8457814455032349, 4.556713104248047, 12.382668495178223, -0.7926969528198242, 0.07684218883514404, 9.533970832824707, 2.0709750652313232, -1.7124910354614258, -0.2412348985671997, 
120, 404891345, 0.8756303191184998, 4.547347545623779, 12.378434181213379, -0.7815418839454651, -0.06334169954061508, 9.401087760925293, 2.6186459064483643, -1.8671882152557373, -0.31066229939460754, 
121, 404899678, 0.9075978994369507, 4.5374016761779785, 12.374344825744629, -0.7386385798454285, 0.05516217276453972, 9.49697494506836, 2.8665661811828613, -1.9329144954681396, -0.24608881771564484, 
122, 404908011, 0.9379133582115173, 4.528425693511963, 12.370491981506348, -0.738160252571106, 0.14529290795326233, 9.336518287658691, 2.670219898223877, -1.8202499151229858, -0.2639290988445282, 
123, 404916344, 0.9695642590522766, 4.521613121032715, 12.368634223937988, -0.7386261820793152, 0.3110187351703644, 9.176748275756836, 2.8074355125427246, -1.5534777641296387, 0.008388661779463291, 
124, 404924677, 0.989959716796875, 4.5132737159729, 12.365734100341797, -0.7052354216575623, 0.294094055891037, 9.22304630279541, 1.470564365386963, -1.7422162294387817, -0.15034274756908417, 
125, 404933010, 1.0089775323867798, 4.507248878479004, 12.364303588867188, -0.7457618117332458, 0.23434993624687195, 9.432818412780762, 1.2890620231628418, -1.458000659942627, 0.02374439500272274, 
126, 404941343, 1.027220368385315, 4.505481243133545, 12.364825248718262, -0.734668493270874, 0.27562764286994934, 9.541728019714355, 1.1809443235397339, -0.9469966888427734, 0.2443597912788391, 
127, 404949676, 1.040795922279358, 4.508317470550537, 12.366304397583008, -0.7449396848678589, 0.3560611605644226, 9.687888145446777, 0.6079026460647583, -0.38955408334732056, 0.3547315299510956, 
128, 404958009, 1.0484580993652344, 4.5153656005859375, 12.366498947143555, -0.7697389125823975, 0.4439626634120941, 9.834722518920898, -0.08566681295633316, 0.11065348982810974, 0.18747058510780334, 
129, 404966342, 1.0507746934890747, 4.5230183601379395, 12.365692138671875, -0.7136963605880737, 0.46347561478614807, 9.74842357635498, -0.7213096618652344, 0.18383336067199707, 0.06324154138565063, 
130, 404974675, 1.047268271446228, 4.528379440307617, 12.364046096801758, -0.7007067799568176, 0.48265954852104187, 9.753602027893066, -1.4089750051498413, -0.09593810886144638, -0.02923864871263504, 
131, 404983008, 1.039819598197937, 4.529847621917725, 12.363311767578125, -0.6788416504859924, 0.3808601498603821, 9.68088150024414, -1.8936219215393066, -0.558761715888977, 0.08895823359489441, 
132, 404991341, 1.030716896057129, 4.527812957763672, 12.363561630249023, -0.671690046787262, 0.3373371958732605, 9.636098861694336, -2.0988175868988037, -0.9787070751190186, 0.21385324001312256, 
133, 404999674, 1.01937997341156, 4.522682189941406, 12.363627433776855, -0.6855607032775879, 0.28818145394325256, 9.571000099182129, -2.3675878047943115, -1.3482180833816528, 0.1996629536151886, 
134, 405008007, 1.007258653640747, 4.517332077026367, 12.364616394042969, -0.7050953507423401, 0.2756907045841217, 9.527928352355957, -2.4696221351623535, -1.3754587173461914, 0.3088180124759674, 
135, 405016340, 0.993939995765686, 4.512457370758057, 12.366405487060547, -0.7286114692687988, 0.24465277791023254, 9.515498161315918, -2.6218600273132324, -1.3141255378723145, 0.40186169743537903, 
136, 405024673, 0.9794225692749023, 4.511056900024414, 12.368599891662598, -0.7613112330436707, 0.23055045306682587, 9.492117881774902, -2.7667088508605957, -0.8988420367240906, 0.44525226950645447, 
137, 405033006, 0.9623758792877197, 4.513430595397949, 12.371379852294922, -0.749128520488739, 0.14797154068946838, 9.510843276977539, -3.078946590423584, -0.44206327199935913, 0.4964807331562042, 
138, 405041339, 0.9449918866157532, 4.518391132354736, 12.37478256225586, -0.7548748254776001, 0.10249556601047516, 9.501648902893066, -3.1230156421661377, -0.13370631635189056, 0.5757696032524109, 
139, 405049672, 0.927871584892273, 4.5247931480407715, 12.376834869384766, -0.7791810631752014, 0.08075730502605438, 9.512770652770996, -3.0801632404327393, 0.039638031274080276, 0.4134521782398224, 
140, 405058005, 0.9097469449043274, 4.531729698181152, 12.377578735351562, -0.7489908933639526, 0.05347622558474541, 9.522523880004883, -3.1863722801208496, 0.09838428348302841, 0.2564752995967865, 
141, 405066338, 0.8896775841712952, 4.53639030456543, 12.375829696655273, -0.7552064657211304, -0.021378587931394577, 9.537025451660156, -3.399841785430908, -0.1770840287208557, -0.038895219564437866, 
142, 405074671, 0.8770202398300171, 4.5397491455078125, 12.376849174499512, -0.7509163022041321, 0.04913541302084923, 9.550262451171875, -2.533107280731201, -0.33061572909355164, 0.2964591681957245, 
143, 405083004, 0.8617177605628967, 4.537679672241211, 12.377367973327637, -0.6954631805419922, -0.11318542808294296, 9.539021492004395, -2.8464715480804443, -0.9801415205001831, 0.24761278927326202, 
144, 405091337, 0.8626537322998047, 4.537243366241455, 12.380577087402344, -0.816353976726532, 0.13656923174858093, 9.689384460449219, -0.9233036041259766, -0.7820666432380676, 0.5643841028213501, 
145, 405099670, 0.86696857213974, 4.534736633300781, 12.38288688659668, -0.744982898235321, -0.15083914995193481, 9.611689567565918, -0.510145902633667, -1.028962254524231, 0.45534422993659973, 
146, 405108003, 0.8757444024085999, 4.531750202178955, 12.384937286376953, -0.8313247561454773, 0.06994018703699112, 9.599836349487305, 0.02894408442080021, -1.0899752378463745, 0.43049848079681396, 
147, 405116336, 0.888793408870697, 4.53131628036499, 12.385441780090332, -0.8175127506256104, 0.0338544063270092, 9.526291847229004, 0.5550220608711243, -0.7839236259460449, 0.2377641201019287, 
148, 405124669, 0.8993850350379944, 4.532074451446533, 12.3839693069458, -0.7980498671531677, 0.022946320474147797, 9.45749568939209, 0.2800019681453705, -0.6471179723739624, 0.0018826460000127554, 
149, 405133002, 0.9047760963439941, 4.532500743865967, 12.379767417907715, -0.7891733646392822, 0.08407425135374069, 9.417999267578125, -0.3187563419342041, -0.69059818983078, -0.32016515731811523, 
150, 405141335, 0.9100905656814575, 4.534061908721924, 12.375041961669922, -0.7456337809562683, 0.07815196365118027, 9.380874633789062, -0.32229113578796387, -0.5569943189620972, -0.38747933506965637, 
151, 405149668, 0.9166842699050903, 4.534876823425293, 12.370198249816895, -0.7101844549179077, 0.101555734872818, 9.437962532043457, -0.16799096763134003, -0.6443132758140564, -0.398006796836853, 
152, 405158001, 0.9219567775726318, 4.5338029861450195, 12.367281913757324, -0.7358916401863098, 0.12017491459846497, 9.491693496704102, -0.3449852764606476, -0.869539201259613, -0.16709443926811218, 
153, 405166334, 0.9323191046714783, 4.5332207679748535, 12.366026878356934, -0.7370361685752869, 0.2025899887084961, 9.62690544128418, 0.24897034466266632, -0.8055036664009094, 0.027817057445645332, 
154, 405174667, 0.943859875202179, 4.533743858337402, 12.365387916564941, -0.7476151585578918, 0.22992098331451416, 9.707895278930664, 0.38703107833862305, -0.673641562461853, 0.10235448181629181, 
155, 405183000, 0.955976665019989, 4.535126686096191, 12.366378784179688, -0.7515489459037781, 0.28999754786491394, 9.733938217163086, 0.4390663802623749, -0.5652549266815186, 0.29127228260040283, 
156, 405191333, 0.9678083658218384, 4.535732269287109, 12.366868019104004, -0.7655544877052307, 0.30368825793266296, 9.708553314208984, 0.41082674264907837, -0.6614491939544678, 0.2364962100982666, 
157, 405199666, 0.9761345982551575, 4.536430358886719, 12.365781784057617, -0.7468068599700928, 0.3144175112247467, 9.649886131286621, 0.003483535721898079, -0.6520231366157532, 0.04367227107286453, 
158, 405207999, 0.9811137914657593, 4.5349202156066895, 12.36423397064209, -0.7309204339981079, 0.28465452790260315, 9.579130172729492, -0.3913983106613159, -0.9193844795227051, -0.0017801893409341574, 
159, 405216332, 0.9820608496665955, 4.532535552978516, 12.363450050354004, -0.7317787408828735, 0.270191490650177, 9.516378402709961, -0.8858042359352112, -1.0207655429840088, 0.08923999965190887, 
160, 405224665, 0.981346845626831, 4.530741214752197, 12.362944602966309, -0.7419071197509766, 0.2826160490512848, 9.504133224487305, -1.0864020586013794, -0.9512614011764526, 0.1230635866522789, 
161, 405232998, 0.9767956137657166, 4.528807640075684, 12.362085342407227, -0.7328065037727356, 0.27716362476348877, 9.48173999786377, -1.5440260171890259, -0.9666556715965271, 0.08092817664146423, 
162, 405241331, 0.9700638055801392, 4.528722286224365, 12.362326622009277, -0.7451903820037842, 0.24879303574562073, 9.500870704650879, -1.8142818212509155, -0.7448875904083252, 0.20851266384124756, 
163, 405249664, 0.962790846824646, 4.529322624206543, 12.363077163696289, -0.7322062253952026, 0.2203061431646347, 9.527698516845703, -1.8871543407440186, -0.6592079401016235, 0.2747766971588135, 
164, 405257997, 0.9544486403465271, 4.532177925109863, 12.364899635314941, -0.7636892199516296, 0.21208028495311737, 9.598474502563477, -2.022064447402954, -0.3889521360397339, 0.3917056620121002, 
165, 405266330, 0.9462572932243347, 4.535552024841309, 12.367315292358398, -0.7505050897598267, 0.19763997197151184, 9.597172737121582, -2.013714075088501, -0.32404568791389465, 0.45570287108421326, 
166, 405274663, 0.9376272559165955, 4.538287162780762, 12.369141578674316, -0.751651406288147, 0.19073112308979034, 9.590681076049805, -2.0564005374908447, -0.4034114480018616, 0.3915904760360718, 
167, 405282996, 0.9290029406547546, 4.540356159210205, 12.371082305908203, -0.763798713684082, 0.1513429582118988, 9.566837310791016, -2.0599734783172607, -0.4799339175224304, 0.40651068091392517, 
168, 405291329, 0.918903648853302, 4.540431022644043, 12.372191429138184, -0.7229053378105164, 0.08677889406681061, 9.590396881103516, -2.227362632751465, -0.7242681980133057, 0.31191736459732056, 
169, 405299662, 0.910834550857544, 4.5400390625, 12.372781753540039, -0.7459092140197754, 0.12445642054080963, 9.579927444458008, -1.9808897972106934, -0.7790698409080505, 0.24873985350131989, 
170, 405307995, 0.9030047059059143, 4.538127899169922, 12.373196601867676, -0.7448982000350952, 0.04852757975459099, 9.575580596923828, -1.9478986263275146, -0.9639277458190918, 0.23224428296089172, 
171, 405316328, 0.8978009223937988, 4.535059452056885, 12.374136924743652, -0.747125506401062, 0.042923349887132645, 9.532306671142578, -1.6409119367599487, -1.0988378524780273, 0.3061157166957855, 
172, 405324661, 0.8957681059837341, 4.534112930297852, 12.374996185302734, -0.7555261850357056, 0.03687290474772453, 9.523759841918945, -1.2553153038024902, -0.8476646542549133, 0.28337031602859497, 
173, 405332994, 0.8964270949363708, 4.534332275390625, 12.375861167907715, -0.7686659693717957, 0.048446204513311386, 9.53027629852295, -0.9359442591667175, -0.7048780918121338, 0.2779528796672821, 
174, 405341327, 0.8973175883293152, 4.534769535064697, 12.376392364501953, -0.7610481977462769, 0.049662187695503235, 9.51491928100586, -0.9029273390769958, -0.6817485094070435, 0.2436041682958603, 
175, 405349660, 0.8996713757514954, 4.5363264083862305, 12.3762845993042, -0.7617419958114624, 0.05423285439610481, 9.507194519042969, -0.7227569818496704, -0.5466590523719788, 0.15941019356250763, 
176, 405357993, 0.9039546251296997, 4.539069652557373, 12.374848365783691, -0.7868556380271912, 0.07725070416927338, 9.518481254577637, -0.47724446654319763, -0.40872636437416077, 0.0026766874361783266, 
177, 405366326, 0.9079946875572205, 4.540785312652588, 12.373698234558105, -0.7796313762664795, 0.08943908661603928, 9.521957397460938, -0.5115162134170532, -0.5289851427078247, 0.0483468659222126, 
178, 405374659, 0.9131937623023987, 4.541497230529785, 12.372159957885742, -0.7655258774757385, 0.12521767616271973, 9.567757606506348, -0.36525899171829224, -0.6527019143104553, -0.006531629711389542, 
179, 405382992, 0.9188306927680969, 4.540949821472168, 12.370757102966309, -0.7606763243675232, 0.1472913920879364, 9.59881591796875, -0.31564420461654663, -0.801853597164154, 0.010104816406965256, 
180, 405391325, 0.9257604479789734, 4.539658546447754, 12.368969917297363, -0.7733080387115479, 0.15786325931549072, 9.628447532653809, -0.15638770163059235, -0.8935653567314148, -0.030980413779616356, 
181, 405399658, 0.9330474734306335, 4.538673400878906, 12.367652893066406, -0.7676001191139221, 0.17437197268009186, 9.613842010498047, -0.11740284413099289, -0.8534022569656372, 0.016111351549625397, 
182, 405407991, 0.9401775598526001, 4.538403034210205, 12.366133689880371, -0.7381805181503296, 0.19613096117973328, 9.614823341369629, -0.1361524611711502, -0.770770788192749, -0.0015240469947457314, 
183, 405416324, 0.9476382732391357, 4.538815498352051, 12.36545467376709, -0.7570067048072815, 0.19779746234416962, 9.574100494384766, -0.10417309403419495, -0.6849246025085449, 0.09714198112487793, 
184, 405424657, 0.952867329120636, 4.53919792175293, 12.36443042755127, -0.7554118633270264, 0.23004980385303497, 9.555148124694824, -0.3672312796115875, -0.6916611194610596, 0.05523709952831268, 
185, 405432990, 0.9580057859420776, 4.538346767425537, 12.36407470703125, -0.7251766324043274, 0.2325962334871292, 9.550447463989258, -0.38651877641677856, -0.8360742330551147, 0.14386233687400818, 
186, 405441323, 0.96175616979599, 4.538630485534668, 12.364218711853027, -0.7185388207435608, 0.23610104620456696, 9.505999565124512, -0.5564692616462708, -0.7011896371841431, 0.19667890667915344, 
187, 405449656, 0.9633198380470276, 4.538463115692139, 12.365008354187012, -0.724053680896759, 0.25257402658462524, 9.564946174621582, -0.825610876083374, -0.7507148385047913, 0.2703326344490051, 
188, 405457989, 0.9625222086906433, 4.537801742553711, 12.364777565002441, -0.741213321685791, 0.23995642364025116, 9.59772777557373, -1.0973776578903198, -0.8157492876052856, 0.15076538920402527, 
189, 405466322, 0.9600763916969299, 4.538505554199219, 12.365312576293945, -0.7482375502586365, 0.2450992316007614, 9.664290428161621, -1.3050580024719238, -0.6471564769744873, 0.23480568826198578, 
190, 405474655, 0.9565635323524475, 4.539036750793457, 12.365462303161621, -0.7407554388046265, 0.24521386623382568, 9.618879318237305, -1.4271612167358398, -0.6707472205162048, 0.19838225841522217, 
191, 405482988, 0.9520747065544128, 4.539003372192383, 12.364900588989258, -0.7367148995399475, 0.21341699361801147, 9.606610298156738, -1.540913701057434, -0.7377027273178101, 0.12323006242513657, 
192, 405491321, 0.9473627209663391, 4.5394768714904785, 12.365338325500488, -0.7363296747207642, 0.21294428408145905, 9.609365463256836, -1.5742380619049072, -0.6783289313316345, 0.2315782904624939, 
193, 405499654, 0.9409354329109192, 4.5400710105896, 12.365818977355957, -0.7439863681793213, 0.18140490353107452, 9.581954002380371, -1.782558560371399, -0.6595537066459656, 0.24197764694690704, 
194, 405507987, 0.9348492622375488, 4.5395965576171875, 12.366512298583984, -0.7325313687324524, 0.17648600041866302, 9.543986320495605, -1.741255521774292, -0.7911981344223022, 0.2641211748123169, 
195, 405516320, 0.9290663599967957, 4.538852214813232, 12.367652893066406, -0.7513049244880676, 0.16665831208229065, 9.53459644317627, -1.7101471424102783, -0.8202573657035828, 0.3084465563297272, 
196, 405524653, 0.9237630367279053, 4.538066864013672, 12.368544578552246, -0.7600701451301575, 0.13727408647537231, 9.562322616577148, -1.6493648290634155, -0.8281979560852051, 0.2865464389324188, 
197, 405532986, 0.919276237487793, 4.537374019622803, 12.369832038879395, -0.7467339038848877, 0.11956197023391724, 9.572051048278809, -1.558139443397522, -0.813713014125824, 0.33053886890411377, 
198, 405541319, 0.9148370623588562, 4.537688255310059, 12.37028694152832, -0.7605961561203003, 0.1303146481513977, 9.536858558654785, -1.5407475233078003, -0.6965791583061218, 0.23433184623718262, 
199, 405549652, 0.9112452268600464, 4.538761138916016, 12.371231079101562, -0.7689307332038879, 0.10466030240058899, 9.542348861694336, -1.4466791152954102, -0.6016655564308167, 0.29715073108673096, 
200, 405557985, 0.908804178237915, 4.540014266967773, 12.371253967285156, -0.7349832653999329, 0.08044080436229706, 9.563114166259766, -1.2989362478256226, -0.5852211713790894, 0.17937646806240082, 
201, 405566318, 0.9082767367362976, 4.539740562438965, 12.371574401855469, -0.7711980938911438, 0.07909613847732544, 9.551584243774414, -1.0716482400894165, -0.7648153901100159, 0.21622255444526672, 
202, 405574651, 0.9092460870742798, 4.539451599121094, 12.371928215026855, -0.7530227899551392, 0.06333111226558685, 9.567927360534668, -0.8926816582679749, -0.7693235278129578, 0.22418858110904694, 
203, 405582984, 0.9103123545646667, 4.539636611938477, 12.371295928955078, -0.7492461204528809, 0.05820975452661514, 9.552020072937012, -0.8716908097267151, -0.712114155292511, 0.10819453001022339, 
204, 405591317, 0.9123151302337646, 4.539218425750732, 12.371103286743164, -0.7386097311973572, 0.10103390365839005, 9.583457946777344, -0.7625101208686829, -0.786126434803009, 0.1550813764333725, 
205, 405599650, 0.9148439764976501, 4.538509845733643, 12.370394706726074, -0.7640167474746704, 0.11296477168798447, 9.570059776306152, -0.695938766002655, -0.8192969560623169, 0.09995954483747482, 
206, 405607983, 0.9190154075622559, 4.537778854370117, 12.369333267211914, -0.767914891242981, 0.10957439988851547, 9.549152374267578, -0.4929587244987488, -0.8244325518608093, 0.05430217459797859, 
207, 405616316, 0.9216090440750122, 4.537712097167969, 12.368034362792969, -0.7578866481781006, 0.12624052166938782, 9.54526138305664, -0.683400571346283, -0.7434659600257874, 0.014676956459879875, 
208, 405624649, 0.9254770874977112, 4.537822246551514, 12.36642837524414, -0.7324941158294678, 0.14732713997364044, 9.541571617126465, -0.5252326130867004, -0.725023627281189, -0.011206227354705334, 
209, 405632982, 0.9305314421653748, 4.537963390350342, 12.3659086227417, -0.7458698749542236, 0.13976669311523438, 9.540477752685547, -0.3948562443256378, -0.7167759537696838, 0.1229739561676979, 
210, 405641315, 0.9357722997665405, 4.5387749671936035, 12.365328788757324, -0.7694455981254578, 0.1857021152973175, 9.565997123718262, -0.36972862482070923, -0.6392159461975098, 0.10781031101942062, 
211, 405649648, 0.9404554963111877, 4.538771152496338, 12.364529609680176, -0.7558623552322388, 0.175895556807518, 9.57320785522461, -0.437734454870224, -0.7345521450042725, 0.09792321920394897, 
212, 405657981, 0.9447528719902039, 4.538459300994873, 12.363460540771484, -0.7396826148033142, 0.21198870241641998, 9.602762222290039, -0.47805124521255493, -0.7754068970680237, 0.05181759595870972, 
213, 405666314, 0.9478228092193604, 4.538766860961914, 12.363080024719238, -0.7463276386260986, 0.2259654551744461, 9.58962345123291, -0.6339651346206665, -0.6966944336891174, 0.13503825664520264, 
214, 405674647, 0.9505243301391602, 4.537868022918701, 12.362903594970703, -0.7518495917320251, 0.23486371338367462, 9.612648963928223, -0.6786876320838928, -0.8432334065437317, 0.16139529645442963, 
215, 405682980, 0.9520838856697083, 4.537186622619629, 12.362473487854004, -0.7629222273826599, 0.20730368793010712, 9.60922908782959, -0.8146991729736328, -0.8151857256889343, 0.13524314761161804, 
216, 405691313, 0.9525054097175598, 4.537677764892578, 12.362168312072754, -0.747479259967804, 0.21707448363304138, 9.587706565856934, -0.951517641544342, -0.6771634817123413, 0.1423255056142807, 
217, 405699646, 0.9511040449142456, 4.538338661193848, 12.361812591552734, -0.7387885451316833, 0.2263016402721405, 9.580260276794434, -1.1709545850753784, -0.6545974016189575, 0.12956959009170532, 
218, 405707979, 0.9482566118240356, 4.538915634155273, 12.361506462097168, -0.7495607137680054, 0.21737489104270935, 9.566162109375, -1.3435304164886475, -0.6662646532058716, 0.14351654052734375, 
219, 405716312, 0.9450188875198364, 4.538076400756836, 12.361960411071777, -0.7438384294509888, 0.19843417406082153, 9.543766975402832, -1.3977175951004028, -0.832770049571991, 0.22055135667324066, 
220, 405724645, 0.9426239728927612, 4.537945747375488, 12.362080574035645, -0.7597177624702454, 0.2045641541481018, 9.551884651184082, -1.292852759361267, -0.7515215873718262, 0.1944248527288437, 
221, 405732978, 0.9397560358047485, 4.538633346557617, 12.363899230957031, -0.7461988925933838, 0.19171050190925598, 9.51466178894043, -1.369080901145935, -0.6461959481239319, 0.3925509750843048, 
222, 405741311, 0.9357983469963074, 4.538712024688721, 12.364466667175293, -0.7457840442657471, 0.17845627665519714, 9.535662651062012, -1.4841911792755127, -0.7250620722770691, 0.2479073703289032, 
223, 405749644, 0.9310855269432068, 4.538857936859131, 12.365446090698242, -0.7394428253173828, 0.14744876325130463, 9.558636665344238, -1.582255244255066, -0.7126520276069641, 0.304963082075119, 
224, 405757977, 0.9265766143798828, 4.537707805633545, 12.365979194641113, -0.7657181024551392, 0.15333805978298187, 9.586211204528809, -1.5508521795272827, -0.872279942035675, 0.2465626299381256, 
225, 405766310, 0.9229207038879395, 4.537100791931152, 12.367231369018555, -0.750719428062439, 0.1142953634262085, 9.603145599365234, -1.4575395584106445, -0.8031471371650696, 0.33867141604423523, 
226, 405774643, 0.9204529523849487, 4.538004398345947, 12.36775016784668, -0.7717917561531067, 0.149458646774292, 9.554316520690918, -1.3051605224609375, -0.6254867911338806, 0.2396211475133896, 
227, 405782976, 0.9177711606025696, 4.537304878234863, 12.367182731628418, -0.7615059614181519, 0.11835093796253204, 9.580832481384277, -1.3236539363861084, -0.817875325679779, 0.12284586578607559, 
228, 405791309, 0.9156616926193237, 4.537107944488525, 12.36809253692627, -0.7722137570381165, 0.10559026896953583, 9.543702125549316, -1.2673795223236084, -0.7576818466186523, 0.2884930968284607, 
229, 405799642, 0.9147975444793701, 4.537106513977051, 12.368277549743652, -0.762142539024353, 0.11164164543151855, 9.571076393127441, -1.1107227802276611, -0.7319908142089844, 0.20785953104496002, 
230, 405807975, 0.9144273400306702, 4.536435127258301, 12.368439674377441, -0.7336241602897644, 0.12212763726711273, 9.541419982910156, -1.0511057376861572, -0.8162488341331482, 0.19952207803726196, 
231, 405816308, 0.9163082838058472, 4.536830902099609, 12.368622779846191, -0.7446895241737366, 0.10637720674276352, 9.545462608337402, -0.7827454209327698, -0.6844379305839539, 0.21061302721500397, 
232, 405824641, 0.9179412722587585, 4.536113262176514, 12.368436813354492, -0.7483876347541809, 0.13244204223155975, 9.57701301574707, -0.8070789575576782, -0.822088897228241, 0.15730983018875122, 
233, 405832974, 0.9195773005485535, 4.537006855010986, 12.367447853088379, -0.7524504661560059, 0.11448124796152115, 9.549939155578613, -0.8011234998703003, -0.6268187165260315, 0.06298539787530899, 
234, 405841307, 0.9224357604980469, 4.537299156188965, 12.36754322052002, -0.7563058733940125, 0.12936632335186005, 9.578278541564941, -0.662115216255188, -0.700920820236206, 0.18882815539836884, 
235, 405849640, 0.9249994158744812, 4.537066459655762, 12.366623878479004, -0.7421718239784241, 0.12940208613872528, 9.56021785736084, -0.6898297667503357, -0.7616264820098877, 0.07551075518131256, 
236, 405857973, 0.9276854991912842, 4.537002086639404, 12.366198539733887, -0.7394251227378845, 0.1600019484758377, 9.544875144958496, -0.6778551340103149, -0.7439910769462585, 0.1288267970085144, 
237, 405866306, 0.9308171272277832, 4.537574291229248, 12.366605758666992, -0.7424795627593994, 0.17249786853790283, 9.5863037109375, -0.6344646215438843, -0.6633574366569519, 0.2132769078016281, 
238, 405874639, 0.9331896305084229, 4.538031578063965, 12.36659049987793, -0.749203085899353, 0.17219753563404083, 9.597126960754395, -0.7190555930137634, -0.6811721324920654, 0.1767382174730301, 
239, 405882972, 0.936311662197113, 4.53793478012085, 12.366118431091309, -0.7468998432159424, 0.20361283421516418, 9.610209465026855, -0.6262295842170715, -0.745002806186676, 0.11690335720777512, 
240, 405891305, 0.9397923946380615, 4.539323329925537, 12.365525245666504, -0.765440046787262, 0.20890593528747559, 9.56857967376709, -0.5827366709709167, -0.5699294805526733, 0.10716995596885681, 
241, 405899638, 0.941046416759491, 4.5394744873046875, 12.365595817565918, -0.7441461682319641, 0.2160443663597107, 9.574108123779297, -0.8560405373573303, -0.7154439687728882, 0.18772673606872559, 
242, 405907971, 0.9421853423118591, 4.540164470672607, 12.365772247314453, -0.7492889165878296, 0.1993783414363861, 9.573772430419922, -0.8697441220283508, -0.6521256566047668, 0.1995604932308197, 
243, 405916304, 0.9421809315681458, 4.540384292602539, 12.365137100219727, -0.7565204501152039, 0.20594465732574463, 9.588886260986328, -1.0010427236557007, -0.7076317071914673, 0.10125307738780975, 
244, 405924637, 0.9422287940979004, 4.540520668029785, 12.365450859069824, -0.751213014125824, 0.20588743686676025, 9.573894500732422, -1.0007096529006958, -0.7181590795516968, 0.21674765646457672, 
245, 405932970, 0.940906286239624, 4.540855407714844, 12.365464210510254, -0.7545605301856995, 0.18881359696388245, 9.592935562133789, -1.1664594411849976, -0.6926729083061218, 0.18024736642837524, 
246, 405941303, 0.9395424723625183, 4.541823863983154, 12.36485767364502, -0.7588236331939697, 0.2056656926870346, 9.5440673828125, -1.1612852811813354, -0.619979739189148, 0.10609415918588638, 
247, 405949636, 0.9365934133529663, 4.54197359085083, 12.365809440612793, -0.7548609972000122, 0.17541632056236267, 9.534753799438477, -1.3700157403945923, -0.713189959526062, 0.2960749566555023, 
248, 405957969, 0.933189868927002, 4.541834831237793, 12.366374015808105, -0.7438168525695801, 0.16904324293136597, 9.55222225189209, -1.418862223625183, -0.7507660984992981, 0.24774089455604553, 
249, 405966302, 0.9301032423973083, 4.541331768035889, 12.367629051208496, -0.7463562488555908, 0.17209739983081818, 9.585081100463867, -1.3881505727767944, -0.7907754778862, 0.3240712881088257, 
250, 405974635, 0.926932692527771, 4.541372776031494, 12.368598937988281, -0.7328944802284241, 0.15485917031764984, 9.550477027893066, -1.3940931558609009, -0.7287634015083313, 0.2939489781856537, 
251, 405982968, 0.9246178865432739, 4.541252136230469, 12.368953704833984, -0.760425865650177, 0.1572910100221634, 9.567492485046387, -1.2878837585449219, -0.7468342781066895, 0.21522362530231476, 
252, 405991301, 0.9229015707969666, 4.541738033294678, 12.369243621826172, -0.7625288367271423, 0.13554637134075165, 9.532715797424316, -1.2123216390609741, -0.6767024397850037, 0.2129439264535904, 
253, 405999634, 0.920556902885437, 4.541667938232422, 12.369272232055664, -0.7759833335876465, 0.13591116666793823, 9.526227951049805, -1.2887290716171265, -0.7408661842346191, 0.17864647507667542, 
254, 406007967, 0.9194795489311218, 4.54138708114624, 12.36942195892334, -0.7608622312545776, 0.13950905203819275, 9.557271003723145, -1.1347874402999878, -0.7691442370414734, 0.19921469688415527, 
255, 406016300, 0.9179062247276306, 4.540623188018799, 12.368947982788086, -0.7351977825164795, 0.13924439251422882, 9.591597557067871, -1.1916511058807373, -0.8242917060852051, 0.13284823298454285, 
256, 406024633, 0.9184134006500244, 4.539699554443359, 12.369142532348633, -0.7495393753051758, 0.1373487114906311, 9.588835716247559, -0.9447042942047119, -0.8457052707672119, 0.20454248785972595, 
257, 406032966, 0.9184002876281738, 4.539919853210449, 12.369108200073242, -0.7557979822158813, 0.09931007027626038, 9.578629493713379, -1.0089575052261353, -0.7064789533615112, 0.19676853716373444, 
258, 406041299, 0.9188451766967773, 4.539368152618408, 12.369120597839355, -0.7493102550506592, 0.11162741482257843, 9.568866729736328, -0.9511717557907104, -0.8022761940956116, 0.18070842325687408, 
259, 406049632, 0.9201039671897888, 4.539128303527832, 12.368663787841797, -0.7360489368438721, 0.12128369510173798, 9.562078475952148, -0.8508152365684509, -0.7623948454856873, 0.12220550328493118, 
260, 406057965, 0.9218963384628296, 4.53981351852417, 12.368927955627441, -0.7351833581924438, 0.12656967341899872, 9.53805160522461, -0.7925684452056885, -0.6524074077606201, 0.21134305000305176, 
261, 406066298, 0.9235641956329346, 4.540184497833252, 12.368163108825684, -0.766663134098053, 0.14658328890800476, 9.545276641845703, -0.7983061075210571, -0.6891126036643982, 0.08345118165016174, 
262, 406074631, 0.9252083897590637, 4.539912700653076, 12.367486953735352, -0.7360847592353821, 0.12138374149799347, 9.5382661819458, -0.7999197244644165, -0.7697461843490601, 0.0982562005519867, 
263, 406082964, 0.9277242422103882, 4.539961338043213, 12.366962432861328, -0.7376512289047241, 0.12733490765094757, 9.547364234924316, -0.7002291083335876, -0.7275850772857666, 0.11321491003036499, 
264, 406091297, 0.9294210076332092, 4.53939962387085, 12.366480827331543, -0.7588880062103271, 0.16726207733154297, 9.567063331604004, -0.7957702279090881, -0.8044023513793945, 0.1222311332821846, 
265, 406099630, 0.9306449890136719, 4.539759159088135, 12.365250587463379, -0.7360919117927551, 0.15763434767723083, 9.585417747497559, -0.8476133942604065, -0.6916995644569397, 0.02482019178569317, 
266, 406107963, 0.9317724108695984, 4.539874076843262, 12.36433219909668, -0.7618993520736694, 0.17385700345039368, 9.549524307250977, -0.8605998158454895, -0.7232307195663452, 0.07061845064163208, 
267, 406116296, 0.933033287525177, 4.540289878845215, 12.364575386047363, -0.7508482336997986, 0.16254836320877075, 9.56531810760498, -0.857923150062561, -0.682081401348114, 0.21092040836811066, 
268, 406124629, 0.9350290894508362, 4.540249347686768, 12.364578247070312, -0.7408199310302734, 0.1943427473306656, 9.57210636138916, -0.765289306640625, -0.7400592565536499, 0.1804266721010208, 
269, 406132962, 0.9359534382820129, 4.540404796600342, 12.364709854125977, -0.743323564529419, 0.18843434751033783, 9.551891326904297, -0.8975099325180054, -0.7139327526092529, 0.19612820446491241, 
270, 406141295, 0.9360900521278381, 4.541032314300537, 12.36591911315918, -0.7465136051177979, 0.20134536921977997, 9.567643165588379, -0.9993905425071716, -0.658055305480957, 0.32300832867622375, 
271, 406149628, 0.9350478649139404, 4.541433334350586, 12.365835189819336, -0.7528796195983887, 0.178863987326622, 9.567964553833008, -1.1309453248977661, -0.6848220825195312, 0.1745481789112091, 
272, 406157961, 0.9337783455848694, 4.541232109069824, 12.36701774597168, -0.7622784972190857, 0.19362030923366547, 9.572413444519043, -1.1685341596603394, -0.7571951746940613, 0.3217659890651703, 
273, 406166294, 0.9323439002037048, 4.541248798370361, 12.368185997009277, -0.7667560577392578, 0.16834941506385803, 9.583436965942383, -1.1907161474227905, -0.7281230688095093, 0.32038283348083496, 
274, 406174627, 0.9303730726242065, 4.541406631469727, 12.368229866027832, -0.7391104102134705, 0.1635354459285736, 9.595667839050293, -1.2399851083755493, -0.7157385349273682, 0.18571598827838898, 
275, 406182960, 0.9290199279785156, 4.541140079498291, 12.368443489074707, -0.7406554222106934, 0.1735994964838028, 9.557936668395996, -1.171095609664917, -0.7650075554847717, 0.20870479941368103, 
276, 406191293, 0.9268672466278076, 4.540235996246338, 12.368993759155273, -0.7536378502845764, 0.1753591001033783, 9.585932731628418, -1.2682503461837769, -0.8423112630844116, 0.24861176311969757, 
277, 406199626, 0.924491286277771, 4.54010009765625, 12.369966506958008, -0.7446109652519226, 0.16218356788158417, 9.602090835571289, -1.3004218339920044, -0.7477179169654846, 0.2927195131778717, 
278, 406207959, 0.9222230315208435, 4.5390729904174805, 12.370893478393555, -0.7490458488464355, 0.1547301560640335, 9.558156967163086, -1.286283016204834, -0.8565016984939575, 0.29284757375717163, 
279, 406216292, 0.9206294417381287, 4.539418697357178, 12.371471405029297, -0.74090576171875, 0.14407256245613098, 9.541205406188965, -1.2024986743927002, -0.6894455552101135, 0.2590111196041107, 
280, 406224625, 0.9198439121246338, 4.5395283699035645, 12.372292518615723, -0.7215000987052917, 0.14686216413974762, 9.55845832824707, -1.1077899932861328, -0.721194326877594, 0.2778503894805908, 
281, 406232958, 0.9185280203819275, 4.539583206176758, 12.373340606689453, -0.7372151017189026, 0.16563114523887634, 9.584386825561523, -1.1724404096603394, -0.7238326668739319, 0.2943972051143646, 
282, 406241291, 0.9178924560546875, 4.538464069366455, 12.372952461242676, -0.7388314604759216, 0.14484506845474243, 9.555525779724121, -1.0776805877685547, -0.8710504770278931, 0.13434667885303497, 
283, 406249624, 0.9174309968948364, 4.538818359375, 12.373520851135254, -0.7510413527488708, 0.11671293526887894, 9.554259300231934, -1.0657826662063599, -0.6888436079025269, 0.2336658388376236, 
284, 406257957, 0.9165617823600769, 4.538387775421143, 12.373188018798828, -0.7359990477561951, 0.11599760502576828, 9.577920913696289, -1.105459213256836, -0.787432849407196, 0.14078865945339203, 
285, 406266290, 0.9167701005935669, 4.538473606109619, 12.372797966003418, -0.7406052350997925, 0.13272827863693237, 9.553274154663086, -0.9790657162666321, -0.7228464484214783, 0.151738703250885, 
286, 406274623, 0.9187976121902466, 4.538043022155762, 12.37301254272461, -0.7552186250686646, 0.1451168805360794, 9.580904006958008, -0.7638676762580872, -0.7871766686439514, 0.2059256136417389, 
287, 406282956, 0.9202249646186829, 4.5385236740112305, 12.372536659240723, -0.7266359925270081, 0.13643324375152588, 9.5733642578125, -0.8314636945724487, -0.6757035255432129, 0.14227427542209625, 
288, 406291289, 0.9209988117218018, 4.538692474365234, 12.37244701385498, -0.7526291608810425, 0.1645512729883194, 9.569303512573242, -0.911482572555542, -0.7151238322257996, 0.16870816051959991, 
289, 406299622, 0.9229125380516052, 4.538708686828613, 12.372053146362305, -0.7580081820487976, 0.16212642192840576, 9.545076370239258, -0.7727174758911133, -0.7314016819000244, 0.13465403020381927, 
290, 406307955, 0.9242541790008545, 4.53873872756958, 12.371731758117676, -0.7502688765525818, 0.15059596300125122, 9.557836532592773, -0.8406720757484436, -0.7317090630531311, 0.14195409417152405, 
291, 406316288, 0.9261893630027771, 4.539114952087402, 12.370698928833008, -0.7529511451721191, 0.1674337536096573, 9.562600135803223, -0.7634834051132202, -0.6900730133056641, 0.0545198917388916, 
292, 406324621, 0.9275432229042053, 4.540399074554443, 12.370136260986328, -0.7570139765739441, 0.14546021819114685, 9.5681791305542, -0.8374702334403992, -0.5823268294334412, 0.10911663621664047, 
293, 406332954, 0.9292322993278503, 4.540793418884277, 12.370351791381836, -0.7750464677810669, 0.17367807030677795, 9.549338340759277, -0.8045047521591187, -0.6850911974906921, 0.19305451214313507, 
294, 406341287, 0.931646466255188, 4.539977550506592, 12.3698148727417, -0.7644529342651367, 0.16735506057739258, 9.570725440979004, -0.7101931571960449, -0.8344734311103821, 0.11815847456455231, 
295, 406349620, 0.9336223006248474, 4.540355205535889, 12.370553016662598, -0.7527866363525391, 0.16450823843479156, 9.572713851928711, -0.7753428816795349, -0.6852319836616516, 0.2596386671066284, 
296, 406357953, 0.9348143935203552, 4.540060520172119, 12.371345520019531, -0.7538953423500061, 0.18766914308071136, 9.57275676727295, -0.8689244389533997, -0.7702327966690063, 0.2744821012020111, 
297, 406366286, 0.9352317452430725, 4.5406975746154785, 12.371952056884766, -0.7571069598197937, 0.1839282065629959, 9.583621978759766, -0.9619296789169312, -0.6539185643196106, 0.24453911185264587, 
298, 406374619, 0.9356106519699097, 4.539956092834473, 12.371594429016113, -0.7607263326644897, 0.20767563581466675, 9.562643051147461, -0.9546553492546082, -0.8257388472557068, 0.13772772252559662, 
299, 406382952, 0.9363794326782227, 4.540356159210205, 12.371931076049805, -0.7554904222488403, 0.17123906314373016, 9.55479621887207, -0.9180397391319275, -0.6834389567375183, 0.21857906877994537, 
300, 406391285, 0.9359907507896423, 4.540009498596191, 12.372806549072266, -0.7449256777763367, 0.18688233196735382, 9.562728881835938, -1.0596096515655518, -0.7758808135986328, 0.28532978892326355, 
301, 406399618, 0.9354151487350464, 4.540065765380859, 12.372864723205566, -0.7353767156600952, 0.19670313596725464, 9.571390151977539, -1.0755289793014526, -0.7256641387939453, 0.18434564769268036, 
302, 406407951, 0.9332762956619263, 4.540265083312988, 12.372962951660156, -0.7370003461837769, 0.17059530317783356, 9.550862312316895, -1.262973666191101, -0.7110894918441772, 0.19123585522174835, 
303, 406416284, 0.9313743114471436, 4.539618492126465, 12.373377799987793, -0.742894172668457, 0.171067476272583, 9.572128295898438, -1.23866605758667, -0.8096019625663757, 0.22940108180046082, 
304, 406424617, 0.9301447868347168, 4.53927755355835, 12.37313175201416, -0.7460917234420776, 0.16124647855758667, 9.58134651184082, -1.1488879919052124, -0.7767643928527832, 0.1517387181520462, 
305, 406432950, 0.9290438294410706, 4.53969144821167, 12.372405052185059, -0.7432733178138733, 0.17920735478401184, 9.578730583190918, -1.1324692964553833, -0.6839128732681274, 0.08470626920461655, 
306, 406441283, 0.9276354312896729, 4.5391974449157715, 12.371064186096191, -0.7360132336616516, 0.17816300690174103, 9.554667472839355, -1.1610804796218872, -0.797768235206604, 0.017750665545463562, 
307, 406449616, 0.926322877407074, 4.540198802947998, 12.3715181350708, -0.7572714686393738, 0.17409303784370422, 9.57583236694336, -1.1681500673294067, -0.6108099222183228, 0.23034882545471191, 
308, 406457949, 0.92524254322052, 4.539976119995117, 12.37137508392334, -0.7599537968635559, 0.15779171884059906, 9.566641807556152, -1.1321107149124146, -0.7633681297302246, 0.1618819534778595, 
309, 406466282, 0.9239538311958313, 4.5395827293396, 12.371408462524414, -0.7309919595718384, 0.14641869068145752, 9.590432167053223, -1.1618231534957886, -0.7793771028518677, 0.18744495511054993, 
310, 406474615, 0.922863245010376, 4.539200782775879, 12.37142562866211, -0.7546321749687195, 0.14271345734596252, 9.562149047851562, -1.1355687379837036, -0.7809139490127563, 0.1830137073993683, 
311, 406482948, 0.9225186705589294, 4.538288593292236, 12.371828079223633, -0.741392195224762, 0.14330005645751953, 9.56074047088623, -1.0512211322784424, -0.8419015407562256, 0.21900172531604767, 
312, 406491281, 0.92252516746521, 4.538130283355713, 12.372624397277832, -0.7391105890274048, 0.12421607971191406, 9.569208145141602, -1.0125178098678589, -0.7527639269828796, 0.2746870517730713, 
313, 406499614, 0.9240423440933228, 4.538548469543457, 12.373147964477539, -0.7492460012435913, 0.1396377980709076, 9.552084922790527, -0.8274677991867065, -0.6808007955551147, 0.23469042778015137, 
314, 406507947, 0.9257540106773376, 4.538885116577148, 12.37393856048584, -0.7565775513648987, 0.13503152132034302, 9.553967475891113, -0.8067587614059448, -0.6936206817626953, 0.2728171944618225, 
315, 406516280, 0.9281046986579895, 4.539731979370117, 12.373398780822754, -0.7473219037055969, 0.1352030336856842, 9.553601264953613, -0.7180694341659546, -0.6320056319236755, 0.10034376382827759, 
316, 406524613, 0.9298412799835205, 4.540398120880127, 12.37354564666748, -0.7606333494186401, 0.1562824696302414, 9.555225372314453, -0.7977809309959412, -0.6559293270111084, 0.19573117792606354, 
317, 406532946, 0.9310492277145386, 4.540487766265869, 12.37389087677002, -0.7269577383995056, 0.14298532903194427, 9.572542190551758, -0.8644676208496094, -0.7206436991691589, 0.22110207378864288, 
318, 406541279, 0.9325195550918579, 4.540520191192627, 12.373885154724121, -0.7537524700164795, 0.16940782964229584, 9.548315048217773, -0.8285052180290222, -0.7315809726715088, 0.17850561439990997, 
319, 406549612, 0.9333074688911438, 4.540853977203369, 12.374616622924805, -0.753623366355896, 0.1615256667137146, 9.564818382263184, -0.9172329306602478, -0.6909567713737488, 0.25611671805381775, 
320, 406557945, 0.9336189031600952, 4.540725231170654, 12.3759183883667, -0.7504834532737732, 0.17487986385822296, 9.556520462036133, -0.980653703212738, -0.7489985823631287, 0.33503416180610657, 
321, 406566278, 0.9338146448135376, 4.540642738342285, 12.37635612487793, -0.747143030166626, 0.17595277726650238, 9.560604095458984, -0.9859814643859863, -0.740545928478241, 0.22745439410209656, 
322, 406574611, 0.934717059135437, 4.540004253387451, 12.376121520996094, -0.7631868720054626, 0.17593131959438324, 9.562986373901367, -0.8942697644233704, -0.8132519125938416, 0.1526736468076706, 
323, 406582944, 0.9357056021690369, 4.539405822753906, 12.376440048217773, -0.7547537088394165, 0.17697563767433167, 9.569345474243164, -0.8907734155654907, -0.8030958771705627, 0.21428868174552917, 
324, 406591277, 0.9358261227607727, 4.539004802703857, 12.376527786254883, -0.7623141407966614, 0.17563822865486145, 9.544182777404785, -0.9897852540016174, -0.7840772867202759, 0.18996796011924744, 
325, 406599610, 0.9354196190834045, 4.538567066192627, 12.376203536987305, -0.7497682571411133, 0.15917932987213135, 9.541749000549316, -1.052207112312317, -0.7852556705474854, 0.1386626660823822, 
326, 406607943, 0.9348450303077698, 4.539683818817139, 12.376112937927246, -0.7471716403961182, 0.17333483695983887, 9.560239791870117, -1.0714178085327148, -0.6021138429641724, 0.1655576080083847, 
327, 406616276, 0.9344657063484192, 4.540403366088867, 12.376070976257324, -0.7447111010551453, 0.18032316863536835, 9.554302215576172, -1.0524247884750366, -0.6457220315933228, 0.16626198589801788, 
328, 406624609, 0.9336947798728943, 4.540605068206787, 12.376145362854004, -0.7532730102539062, 0.15978741645812988, 9.557872772216797, -1.0982999801635742, -0.7107053399085999, 0.18790602684020996, 
329, 406632942, 0.9335076808929443, 4.540614604949951, 12.37598991394043, -0.7493175268173218, 0.18456481397151947, 9.55897331237793, -1.0247999429702759, -0.7321572303771973, 0.14245355129241943, 
330, 406641275, 0.9317290782928467, 4.541019439697266, 12.37536907196045, -0.7573787569999695, 0.17402151226997375, 9.581612586975098, -1.21280837059021, -0.688741147518158, 0.10387853533029556, 
331, 406649608, 0.9308388829231262, 4.540266036987305, 12.375788688659668, -0.7606977820396423, 0.1470981389284134, 9.567362785339355, -1.1179845333099365, -0.8215510249137878, 0.23960837721824646, 
332, 406657941, 0.9309398531913757, 4.539738655090332, 12.37578010559082, -0.7634229063987732, 0.15733394026756287, 9.59465217590332, -0.9913861751556396, -0.7986390590667725, 0.18027296662330627, 
333, 406666274, 0.9297869205474854, 4.5394978523254395, 12.375138282775879, -0.7443963885307312, 0.14101830124855042, 9.5496244430542, -1.1398844718933105, -0.7624844312667847, 0.10167570412158966, 
334, 406674607, 0.929494321346283, 4.5394287109375, 12.375811576843262, -0.7517995834350586, 0.18015150725841522, 9.587420463562012, -1.0453425645828247, -0.742838442325592, 0.25938254594802856, 
335, 406682940, 0.9289082884788513, 4.539501190185547, 12.375935554504395, -0.7459557056427002, 0.128229022026062, 9.566247940063477, -1.0769761800765991, -0.7238582372665405, 0.18540863692760468, 
336, 406691273, 0.9292090535163879, 4.539769649505615, 12.375550270080566, -0.7328516840934753, 0.13401566445827484, 9.528037071228027, -0.9652084112167358, -0.7042506337165833, 0.13293787837028503, 
337, 406699606, 0.9288342595100403, 4.539637565612793, 12.375662803649902, -0.7487810254096985, 0.1466333419084549, 9.5665922164917, -1.0533982515335083, -0.7470006942749023, 0.20724475383758545, 
338, 406707939, 0.9288073182106018, 4.5401530265808105, 12.375054359436035, -0.7550397515296936, 0.14071081578731537, 9.561785697937012, -1.0021440982818604, -0.6747941970825195, 0.10378887504339218, 
339, 406716272, 0.9285495281219482, 4.539004802703857, 12.375838279724121, -0.7421576976776123, 0.15856413543224335, 9.573779106140137, -1.0433958768844604, -0.8690397143363953, 0.26532503962516785, 
340, 406724605, 0.928318440914154, 4.53896427154541, 12.375712394714355, -0.7554832696914673, 0.1477920413017273, 9.535669326782227, -1.0314466953277588, -0.7401873469352722, 0.16557040810585022, 
341, 406732938, 0.9292595386505127, 4.538999080657959, 12.375814437866211, -0.7456051707267761, 0.16417205333709717, 9.56041145324707, -0.8943337798118591, -0.7281486392021179, 0.19697345793247223, 
342, 406741271, 0.930282473564148, 4.539046764373779, 12.376659393310547, -0.7396899461746216, 0.142842099070549, 9.564687728881836, -0.8897488713264465, -0.72819983959198, 0.2789645791053772, 
343, 406749604, 0.9308938384056091, 4.539565563201904, 12.377184867858887, -0.7414422631263733, 0.16194036602973938, 9.55590534210205, -0.938018798828125, -0.6696072816848755, 0.2452690750360489, 
344, 406757937, 0.931901216506958, 4.540777206420898, 12.377226829528809, -0.7678933143615723, 0.14458054304122925, 9.54438304901123, -0.884433925151825, -0.5898189544677734, 0.18225808441638947, 
345, 406766270, 0.932579517364502, 4.540463924407959, 12.377164840698242, -0.748552143573761, 0.15873588621616364, 9.554896354675293, -0.923892617225647, -0.7700790762901306, 0.16787569224834442, 
346, 406774603, 0.933076024055481, 4.540105819702148, 12.377245903015137, -0.7588450908660889, 0.15476606786251068, 9.568236351013184, -0.9457159042358398, -0.7775841355323792, 0.19085164368152618, 
347, 406782936, 0.9341875314712524, 4.540045261383057, 12.377863883972168, -0.7407126426696777, 0.1588217318058014, 9.562034606933594, -0.8791829943656921, -0.7389194965362549, 0.26071450114250183, 
348, 406791269, 0.934016227722168, 4.540462017059326, 12.37755298614502, -0.7491672039031982, 0.16445112228393555, 9.583738327026367, -1.0222383737564087, -0.6859235167503357, 0.14191564917564392, 
349, 406799602, 0.9346187710762024, 4.540573596954346, 12.377015113830566, -0.7497681379318237, 0.17083850502967834, 9.556477546691895, -0.9333314895629883, -0.7193501591682434, 0.1674274504184723, 
350, 406807935, 0.9347463250160217, 4.540524005889893, 12.376513481140137, -0.7456123232841492, 0.17469388246536255, 9.575282096862793, -0.9850720763206482, -0.7419419288635254, 0.12121935933828354, 
351, 406816268, 0.9346277117729187, 4.539947986602783, 12.375688552856445, -0.7389816641807556, 0.17044509947299957, 9.580611228942871, -1.011775016784668, -0.8032495975494385, 0.08293888717889786, 
352, 406824601, 0.9331902861595154, 4.540407180786133, 12.375036239624023, -0.7588807940483093, 0.17284849286079407, 9.577120780944824, -1.1708651781082153, -0.6815051436424255, 0.10115060955286026, 
353, 406832934, 0.9329603314399719, 4.540634632110596, 12.374418258666992, -0.7387813925743103, 0.15567447245121002, 9.573772430419922, -1.0294746160507202, -0.706709623336792, 0.10686259716749191, 
354, 406841267, 0.9319814443588257, 4.540922164916992, 12.374654769897461, -0.7727288603782654, 0.1641577035188675, 9.562899589538574, -1.1238372325897217, -0.7007157802581787, 0.2068861722946167, 
355, 406849600, 0.9317274689674377, 4.540900230407715, 12.373957633972168, -0.7481873631477356, 0.1537432074546814, 9.527722358703613, -1.033137321472168, -0.7353717684745789, 0.12812240421772003, 
356, 406857933, 0.931296169757843, 4.540775775909424, 12.37375259399414, -0.7434737682342529, 0.16839924454689026, 9.56997299194336, -1.0543203353881836, -0.7510222792625427, 0.15511982142925262, 
357, 406866266, 0.9303954839706421, 4.540251731872559, 12.374354362487793, -0.7515849471092224, 0.16776993870735168, 9.581626892089844, -1.118714451789856, -0.7937979698181152, 0.24794581532478333, 
358, 406874599, 0.929965615272522, 4.540637969970703, 12.375587463378906, -0.7506694197654724, 0.14518125355243683, 9.5792875289917, -1.0693047046661377, -0.6864743828773499, 0.3269144892692566, 
359, 406882932, 0.9285529255867004, 4.541005611419678, 12.376179695129395, -0.7319217920303345, 0.15038852393627167, 9.555004119873047, -1.180316686630249, -0.6877293586730957, 0.24115799367427826, 
360, 406891265, 0.9287500381469727, 4.540742874145508, 12.37697696685791, -0.74830162525177, 0.17019493877887726, 9.535506248474121, -0.9883508086204529, -0.7656094431877136, 0.27503281831741333, 
361, 406899598, 0.927765965461731, 4.541769981384277, 12.376911163330078, -0.7648606300354004, 0.14290665090084076, 9.547843933105469, -1.1240806579589844, -0.6087478995323181, 0.17377977073192596, 
362, 406907931, 0.9275174140930176, 4.541313171386719, 12.377191543579102, -0.759474515914917, 0.16392892599105835, 9.545319557189941, -1.0371843576431274, -0.7903143763542175, 0.21464727818965912, 
363, 406916264, 0.926500141620636, 4.540538311004639, 12.37708854675293, -0.7548466920852661, 0.15049581229686737, 9.560654640197754, -1.1271415948867798, -0.8248680233955383, 0.17000168561935425, 
364, 406924597, 0.925890326499939, 4.540844440460205, 12.377693176269531, -0.745133101940155, 0.14865753054618835, 9.547550201416016, -1.0829570293426514, -0.6976678371429443, 0.2500205338001251, 
365, 406932930, 0.9259539246559143, 4.541077613830566, 12.37752914428711, -0.7678362131118774, 0.14239880442619324, 9.55244255065918, -0.9977641701698303, -0.7054032683372498, 0.15409524738788605, 
366, 406941263, 0.9270534515380859, 4.540718078613281, 12.377113342285156, -0.7479298114776611, 0.15588916838169098, 9.554611206054688, -0.8688732385635376, -0.7795307636260986, 0.13096559047698975, 
367, 406949596, 0.9275800585746765, 4.541475772857666, 12.37691879272461, -0.7652254700660706, 0.15743407607078552, 9.572155952453613, -0.9391331076622009, -0.6422896981239319, 0.13675439357757568, 
368, 406957929, 0.9277979731559753, 4.541925430297852, 12.376602172851562, -0.7511128783226013, 0.1424989402294159, 9.549138069152832, -0.9750313758850098, -0.6812617778778076, 0.14142899215221405, 
369, 406966262, 0.9292415976524353, 4.541772842407227, 12.376235008239746, -0.7566849589347839, 0.1572480946779251, 9.548494338989258, -0.8296834826469421, -0.7516624927520752, 0.13391120731830597, 
370, 406974595, 0.9295522570610046, 4.541725158691406, 12.37551498413086, -0.754531979560852, 0.1565040946006775, 9.574651718139648, -0.9606490135192871, -0.742851197719574, 0.09331265836954117, 
371, 406982928, 0.9295949339866638, 4.541985988616943, 12.37525749206543, -0.7444751858711243, 0.1485644280910492, 9.533042907714844, -0.9997107982635498, -0.7014586925506592, 0.15371102094650269, 
372, 406991261, 0.9297759532928467, 4.541784763336182, 12.375731468200684, -0.7436097264289856, 0.14612524211406708, 9.528801918029785, -0.9874415397644043, -0.7586551904678345, 0.23718781769275665, 
373, 406999594, 0.9298849105834961, 4.542261600494385, 12.375557899475098, -0.750225841999054, 0.13803569972515106, 9.586191177368164, -0.9937682151794434, -0.6747174263000488, 0.19728082418441772, 
374, 407007927, 0.9310150146484375, 4.542788982391357, 12.375410079956055, -0.7735728025436401, 0.1835920214653015, 9.569123268127441, -0.8683098554611206, -0.6729243993759155, 0.16090862452983856, 
375, 407016260, 0.931732177734375, 4.542976379394531, 12.37545108795166, -0.7619996070861816, 0.15596045553684235, 9.585502624511719, -0.9197047352790833, -0.7101802229881287, 0.1773657649755478, 
376, 407024593, 0.9324237108230591, 4.542983055114746, 12.375489234924316, -0.7586090564727783, 0.17231914401054382, 9.561956405639648, -0.9217409491539001, -0.7339118123054504, 0.18567758798599243, 
377, 407032926, 0.9322571158409119, 4.54227352142334, 12.37570571899414, -0.7418498992919922, 0.1688930094242096, 9.57608413696289, -1.0280144214630127, -0.8165689706802368, 0.2066812664270401, 
378, 407041259, 0.9311878681182861, 4.54240083694458, 12.37562084197998, -0.7615774869918823, 0.16124653816223145, 9.58360767364502, -1.1317776441574097, -0.7210277915000916, 0.1696174442768097, 
379, 407049592, 0.9316969513893127, 4.541535377502441, 12.375387191772461, -0.7447183728218079, 0.1683134138584137, 9.572755813598633, -0.943205714225769, -0.8368299007415771, 0.144003227353096, 
380, 407057925, 0.9305199980735779, 4.5422282218933105, 12.375457763671875, -0.7545032501220703, 0.18497973680496216, 9.5702543258667, -1.1462754011154175, -0.6526122689247131, 0.18693268299102783, 
381, 407066258, 0.9306798577308655, 4.542324066162109, 12.375225067138672, -0.7470929622650146, 0.1559176743030548, 9.54923152923584, -0.9832152128219604, -0.7213353514671326, 0.11736443638801575, 
382, 407074591, 0.9297316670417786, 4.542459964752197, 12.375852584838867, -0.7632940411567688, 0.1540079414844513, 9.571441650390625, -1.1237092018127441, -0.7179028987884521, 0.25434935092926025, 
383, 407082924, 0.9297336935997009, 4.542322158813477, 12.376202583312988, -0.7596033215522766, 0.1544012725353241, 9.567156791687012, -1.0122872591018677, -0.7481277585029602, 0.2575511634349823, 
384, 407091257, 0.9293038249015808, 4.54199743270874, 12.376248359680176, -0.7709764242172241, 0.1432284712791443, 9.558422088623047, -1.057342767715454, -0.7741518616676331, 0.18457618355751038, 
385, 407099590, 0.927941083908081, 4.5421929359436035, 12.376765251159668, -0.7452045679092407, 0.15030990540981293, 9.572772026062012, -1.1719536781311035, -0.7083616852760315, 0.21435272693634033, 
386, 407107923, 0.9275093674659729, 4.5431647300720215, 12.376787185668945, -0.7495678663253784, 0.1456676423549652, 9.557571411132812, -1.0560492277145386, -0.6183019280433655, 0.18056753277778625, 
387, 407116256, 0.9274032115936279, 4.543400287628174, 12.376838684082031, -0.7349687814712524, 0.15262749791145325, 9.551414489746094, -1.0212138891220093, -0.7041609287261963, 0.19619221985340118, 
388, 407124589, 0.9267322421073914, 4.543334484100342, 12.377480506896973, -0.7622427344322205, 0.14864322543144226, 9.572871208190918, -1.090871810913086, -0.7417241930961609, 0.25662901997566223, 
389, 407132922, 0.926145613193512, 4.543941020965576, 12.377877235412598, -0.7420861124992371, 0.15498051047325134, 9.560574531555176, -1.077296257019043, -0.6594512462615967, 0.1888793557882309, 
390, 407141255, 0.9261758923530579, 4.543900489807129, 12.37801456451416, -0.7644743919372559, 0.14605389535427094, 9.558451652526855, -1.002669334411621, -0.7403281927108765, 0.19529573619365692, 
391, 407149588, 0.9272035360336304, 4.544731140136719, 12.377978324890137, -0.742801308631897, 0.14794939756393433, 9.566476821899414, -0.8832300305366516, -0.6323385834693909, 0.18494756519794464, 
392, 407157921, 0.9266524314880371, 4.544854164123535, 12.378211975097656, -0.7644957900047302, 0.1565328687429428, 9.565519332885742, -1.0724936723709106, -0.7214761972427368, 0.20561827719211578, 
393, 407166254, 0.9270913600921631, 4.544684410095215, 12.378963470458984, -0.7457196712493896, 0.1718112826347351, 9.540311813354492, -0.9602777361869812, -0.7506764531135559, 0.261098712682724, 
394, 407174587, 0.9265243411064148, 4.544695854187012, 12.379225730895996, -0.746606707572937, 0.16240525245666504, 9.554759979248047, -1.0747989416122437, -0.7339503169059753, 0.20956285297870636, 
395, 407182920, 0.9277135729789734, 4.544871807098389, 12.379915237426758, -0.7440673112869263, 0.15945832431316376, 9.549803733825684, -0.8699234127998352, -0.7104490995407104, 0.2584475874900818, 
396, 407191253, 0.9274029731750488, 4.545547962188721, 12.379695892333984, -0.7376869916915894, 0.15634684264659882, 9.520984649658203, -1.0403605699539185, -0.6545076966285706, 0.15281450748443604, 
397, 407199586, 0.9283403158187866, 4.5456037521362305, 12.380188941955566, -0.7682082056999207, 0.16087459027767181, 9.544288635253906, -0.8965111374855042, -0.7248188257217407, 0.22420141100883484, 
398, 407207919, 0.9286854863166809, 4.545390605926514, 12.38066577911377, -0.7639379501342773, 0.16241960227489471, 9.564423561096191, -0.968346118927002, -0.7593339681625366, 0.2381739616394043, 
399, 407216252, 0.9281211495399475, 4.545379638671875, 12.381462097167969, -0.7707688808441162, 0.14916539192199707, 9.539145469665527, -1.0814073085784912, -0.7325671315193176, 0.27441808581352234, 
400, 407224585, 0.9288337826728821, 4.545415878295898, 12.38237476348877, -0.7753109335899353, 0.16777709126472473, 9.576089859008789, -0.9278244376182556, -0.7289299368858337, 0.28994032740592957, 
401, 407232918, 0.9289502501487732, 4.544578552246094, 12.382533073425293, -0.7693597674369812, 0.15948693454265594, 9.553915977478027, -0.9955740571022034, -0.832821249961853, 0.20933233201503754, 
402, 407241251, 0.9282526969909668, 4.5450921058654785, 12.382984161376953, -0.7535234093666077, 0.16470851004123688, 9.56512451171875, -1.0915377140045166, -0.6726169586181641, 0.23319199681282043, 
403, 407249584, 0.9284725785255432, 4.545131206512451, 12.382031440734863, -0.7659549713134766, 0.17332063615322113, 9.556979179382324, -0.9704849123954773, -0.7300696969032288, 0.06062888726592064, 
404, 407257917, 0.9286243319511414, 4.544519901275635, 12.382080078125, -0.7519998550415039, 0.1531924307346344, 9.550511360168457, -0.9868395924568176, -0.8089486956596375, 0.18610021471977234, 
405, 407266250, 0.9276402592658997, 4.543970584869385, 12.382217407226562, -0.7691881060600281, 0.17344214022159576, 9.56204891204834, -1.1241960525512695, -0.7980242967605591, 0.17586733400821686, 
406, 407274583, 0.927531361579895, 4.544065475463867, 12.3823881149292, -0.7277516722679138, 0.15641121566295624, 9.522515296936035, -1.0190366506576538, -0.7241912484169006, 0.19834382832050323, 
407, 407282916, 0.9276940226554871, 4.544492244720459, 12.38197135925293, -0.7542958855628967, 0.15960854291915894, 9.546091079711914, -0.9834328293800354, -0.6816204190254211, 0.12711063027381897, 
408, 407291249, 0.9275543093681335, 4.544810771942139, 12.382244110107422, -0.7589237689971924, 0.15803490579128265, 9.566405296325684, -1.0238137245178223, -0.6972578763961792, 0.21075394749641418, 
409, 407299582, 0.9284153580665588, 4.544682502746582, 12.381915092468262, -0.7442318797111511, 0.14388659596443176, 9.567657470703125, -0.9041441679000854, -0.7471801042556763, 0.19469380378723145, 
410, 407307915, 0.9273409843444824, 4.544579982757568, 12.381977081298828, -0.7492673993110657, 0.17413602769374847, 9.57805061340332, -1.1330584287643433, -0.7478715777397156, 0.1865740716457367, 
411, 407316248, 0.9278321266174316, 4.544972896575928, 12.38286304473877, -0.744260311126709, 0.13954497873783112, 9.549833297729492, -0.9535794854164124, -0.6843996047973633, 0.24809947609901428, 
412, 407324581, 0.9282354116439819, 4.5451340675354, 12.382767677307129, -0.7674428224563599, 0.1642364263534546, 9.56895923614502, -0.9548090100288391, -0.7153415679931641, 0.17020659148693085, 
413, 407332914, 0.9284866452217102, 4.545759201049805, 12.382974624633789, -0.7383736968040466, 0.14043176174163818, 9.59445858001709, -0.9754540920257568, -0.6577350497245789, 0.1637517809867859, 
414, 407341247, 0.9282066226005554, 4.54576301574707, 12.383872032165527, -0.7407986521720886, 0.14308539032936096, 9.570611000061035, -1.046968936920166, -0.7336812615394592, 0.2862902581691742, 
415, 407349580, 0.9279859066009521, 4.544766902923584, 12.383272171020508, -0.7531943321228027, 0.15847845375537872, 9.55858039855957, -1.0277711153030396, -0.8519806265830994, 0.11858108639717102, 
416, 407357913, 0.9281582832336426, 4.544436454772949, 12.383565902709961, -0.7340748310089111, 0.14033877849578857, 9.552979469299316, -0.9863402843475342, -0.7753556370735168, 0.21518518030643463, 
417, 407366246, 0.928132951259613, 4.543636322021484, 12.383986473083496, -0.746392011642456, 0.14042460918426514, 9.568493843078613, -1.0122361183166504, -0.8277623653411865, 0.23150144517421722, 
418, 407374579, 0.9280118346214294, 4.544063091278076, 12.384183883666992, -0.756541907787323, 0.16483011841773987, 9.528151512145996, -1.0223792791366577, -0.6831700205802917, 0.2016352415084839, 
419, 407382912, 0.9280203580856323, 4.543664455413818, 12.384559631347656, -0.7593100666999817, 0.1504099816083908, 9.559910774230957, -1.007164478302002, -0.7799406051635742, 0.21006233990192413, 
420, 407391245, 0.9287317991256714, 4.543405532836914, 12.384432792663574, -0.737787127494812, 0.16111063957214355, 9.534253120422363, -0.9180911183357239, -0.7668390870094299, 0.16279129683971405, 
421, 407399578, 0.9294190406799316, 4.543637752532959, 12.384831428527832, -0.7365139126777649, 0.147470161318779, 9.546548843383789, -0.9261466860771179, -0.703789472579956, 0.21866871416568756, 
422, 407407911, 0.9293921589851379, 4.5442938804626465, 12.384638786315918, -0.7463347911834717, 0.17322039604187012, 9.567399978637695, -1.0058069229125977, -0.6567873954772949, 0.15511982142925262, 
423, 407416244, 0.9298317432403564, 4.544789791107178, 12.385000228881836, -0.7440601587295532, 0.16135382652282715, 9.539202690124512, -0.9583949446678162, -0.6729755401611328, 0.22788988053798676, 
424, 407424577, 0.9298933148384094, 4.545065879821777, 12.384866714477539, -0.7468926906585693, 0.16043826937675476, 9.563150405883789, -0.9964065551757812, -0.7022526860237122, 0.16395673155784607, 
425, 407432910, 0.930057168006897, 4.544877052307129, 12.385218620300293, -0.7243898510932922, 0.18277660012245178, 9.575439453125, -0.989413857460022, -0.7544800639152527, 0.22120451927185059, 
426, 407441243, 0.9298433661460876, 4.545292854309082, 12.38418960571289, -0.747522234916687, 0.1433071345090866, 9.551490783691406, -1.0206631422042847, -0.6864486336708069, 0.056889213621616364, 
427, 407449576, 0.9306386709213257, 4.545288562774658, 12.384133338928223, -0.7642383575439453, 0.16293461620807648, 9.564774513244629, -0.9085752367973328, -0.7340911626815796, 0.15796299278736115, 
428, 407457909, 0.9309242963790894, 4.545784950256348, 12.383979797363281, -0.7553330659866333, 0.15330688655376434, 9.573572158813477, -0.9680771827697754, -0.6758187413215637, 0.1606268733739853, 
429, 407466242, 0.9310839176177979, 4.544898509979248, 12.383540153503418, -0.7579081058502197, 0.16315634548664093, 9.58262825012207, -0.9856997132301331, -0.8391351103782654, 0.15985843539237976, 
430, 407474575, 0.9307917356491089, 4.544883728027344, 12.383429527282715, -0.7229664325714111, 0.15357153117656708, 9.547586441040039, -1.0385291576385498, -0.7376899123191833, 0.16548074781894684, 
431, 407482908, 0.9311915040016174, 4.543979167938232, 12.383636474609375, -0.7508553862571716, 0.16809895634651184, 9.575489044189453, -0.9588176012039185, -0.8401211500167847, 0.1886872500181198, 
432, 407491241, 0.9315708875656128, 4.544582843780518, 12.383885383605957, -0.7454549670219421, 0.1583496332168579, 9.571340560913086, -0.9610973596572876, -0.6632550358772278, 0.20633548498153687, 
433, 407499574, 0.9310450553894043, 4.544317722320557, 12.384696006774902, -0.7438740730285645, 0.16648966073989868, 9.572242736816406, -1.0788075923919678, -0.7621899843215942, 0.2941794693470001, 
434, 407507907, 0.9308117628097534, 4.543520450592041, 12.385608673095703, -0.7518281936645508, 0.15737685561180115, 9.52832317352295, -1.04118013381958, -0.8294016718864441, 0.29005560278892517, 
435, 407516240, 0.9301588535308838, 4.54494571685791, 12.385284423828125, -0.7586162686347961, 0.16026650369167328, 9.559150695800781, -1.0804980993270874, -0.5626295208930969, 0.11562265455722809, 
436, 407524573, 0.9291989207267761, 4.545275688171387, 12.385881423950195, -0.743674099445343, 0.1678914725780487, 9.548973083496094, -1.1241446733474731, -0.6939024329185486, 0.2509170472621918, 
437, 407532906, 0.929569661617279, 4.545373916625977, 12.386128425598145, -0.7418140769004822, 0.1591079980134964, 9.583050727844238, -0.9655669927597046, -0.7204899787902832, 0.2261480689048767, 
438, 407541239, 0.9292951822280884, 4.546100616455078, 12.38657283782959, -0.7460486888885498, 0.15777741372585297, 9.534117698669434, -1.0430244207382202, -0.6475662589073181, 0.23142461478710175, 
439, 407549572, 0.929099977016449, 4.546205043792725, 12.386202812194824, -0.7699750661849976, 0.16937203705310822, 9.531133651733398, -1.025901198387146, -0.7199905514717102, 0.13743317127227783, 
440, 407557905, 0.9290691018104553, 4.545651435852051, 12.385783195495605, -0.7591813206672668, 0.1634567677974701, 9.546599388122559, -1.0044366121292114, -0.802827000617981, 0.1309015303850174, 
441, 407566238, 0.9294829964637756, 4.544469833374023, 12.385730743408203, -0.7569496035575867, 0.1466905027627945, 9.571826934814453, -0.956691563129425, -0.8734197616577148, 0.18159210681915283, 
442, 407574571, 0.9296737909317017, 4.544496059417725, 12.386337280273438, -0.7558478713035583, 0.14004568755626678, 9.588573455810547, -0.9864298105239868, -0.7311838865280151, 0.2512372136116028, 
443, 407582904, 0.9307763576507568, 4.545364856719971, 12.38691520690918, -0.7536521553993225, 0.14192670583724976, 9.570968627929688, -0.8784913420677185, -0.6272669434547424, 0.23466481268405914, 
444, 407591237, 0.930327296257019, 4.545898914337158, 12.387015342712402, -0.7471573352813721, 0.142241433262825, 9.573600769042969, -1.0603139400482178, -0.6710032820701599, 0.1908772736787796, 
445, 407599570, 0.9310473203659058, 4.545901775360107, 12.387226104736328, -0.7512273192405701, 0.15769873559474945, 9.56679916381836, -0.9211134314537048, -0.7317217588424683, 0.19803644716739655, 
446, 407607903, 0.9314408302307129, 4.546242713928223, 12.387384414672852, -0.7542029023170471, 0.15676170587539673, 9.562335014343262, -0.9590610265731812, -0.6946452856063843, 0.19792120158672333, 
447, 407616236, 0.9314773082733154, 4.545901775360107, 12.3873929977417, -0.7572929263114929, 0.14578209817409515, 9.558694839477539, -1.0012218952178955, -0.7725636959075928, 0.18749618530273438, 
448, 407624569, 0.9308750629425049, 4.545968532562256, 12.387537002563477, -0.7577508091926575, 0.15032409131526947, 9.561297416687012, -1.0796656608581543, -0.7274186015129089, 0.19539818167686462, 
449, 407632902, 0.9306906461715698, 4.5460286140441895, 12.387797355651855, -0.751863956451416, 0.17108169198036194, 9.550654411315918, -1.0310496091842651, -0.7251132726669312, 0.22157593071460724, 
450, 407641235, 0.92983078956604, 4.546289443969727, 12.387557983398438, -0.7639093399047852, 0.17517311871051788, 9.555253982543945, -1.1055488586425781, -0.7038663029670715, 0.15097029507160187, 
451, 407649568, 0.9303603768348694, 4.546252727508545, 12.38839054107666, -0.7555261850357056, 0.154265359044075, 9.532021522521973, -0.9514791965484619, -0.7352693676948547, 0.2799123525619507, 
452, 407657901, 0.9310544729232788, 4.546450614929199, 12.388151168823242, -0.7604188323020935, 0.1709313690662384, 9.550374984741211, -0.9186927676200867, -0.7118066549301147, 0.15222539007663727, 
453, 407666234, 0.9313105940818787, 4.546922206878662, 12.387456893920898, -0.7515348792076111, 0.18471501767635345, 9.55053997039795, -0.9702929258346558, -0.6779575347900391, 0.10341747850179672, 
454, 407674567, 0.9319648146629333, 4.546802997589111, 12.387319564819336, -0.7642812728881836, 0.17267678678035736, 9.558194160461426, -0.9233803153038025, -0.7499463558197021, 0.16370058059692383, 
455, 407682900, 0.9326801896095276, 4.5466108322143555, 12.388248443603516, -0.7578077912330627, 0.15726976096630096, 9.541471481323242, -0.929169237613678, -0.7540702819824219, 0.2854706645011902, 
456, 407691233, 0.9333404302597046, 4.546515941619873, 12.388606071472168, -0.7529797554016113, 0.14704814553260803, 9.559667587280273, -0.9282470345497131, -0.7457968592643738, 0.2215375155210495, 
457, 407699566, 0.9333493113517761, 4.546757221221924, 12.388317108154297, -0.7636518478393555, 0.16780570149421692, 9.548866271972656, -1.0039371252059937, -0.7046090960502625, 0.15514540672302246, 
458, 407707899, 0.9338098168373108, 4.54649543762207, 12.38774299621582, -0.7584015727043152, 0.17037369310855865, 9.560970306396484, -0.9432825446128845, -0.7674152851104736, 0.11088401824235916, 
459, 407716232, 0.9350297451019287, 4.545383930206299, 12.388473510742188, -0.7428871393203735, 0.1805019974708557, 9.596332550048828, -0.8663502335548401, -0.8647621273994446, 0.26440292596817017, 
460, 407724565, 0.9349680542945862, 4.545401573181152, 12.388509750366211, -0.7506981492042542, 0.15613925457000732, 9.561447143554688, -1.0132094621658325, -0.7331945896148682, 0.18414074182510376, 
461, 407732898, 0.9345786571502686, 4.545604705810547, 12.388603210449219, -0.7495465278625488, 0.1556457281112671, 9.547513008117676, -1.0498121976852417, -0.7088098526000977, 0.1508934497833252, 
462, 407741231, 0.9340497255325317, 4.545525550842285, 12.389238357543945, -0.7516779899597168, 0.15367168188095093, 9.536327362060547, -1.0742994546890259, -0.7433891296386719, 0.25488725304603577, 
463, 407749564, 0.9340027570724487, 4.545155048370361, 12.388608932495117, -0.7494319677352905, 0.1512325555086136, 9.558122634887695, -1.0085989236831665, -0.7774304747581482, 0.12323008477687836, 
464, 407757897, 0.9336832165718079, 4.544960021972656, 12.389739990234375, -0.7386311888694763, 0.1634710729122162, 9.600030899047852, -1.0534367561340332, -0.7565164566040039, 0.31609249114990234, 
465, 407766230, 0.9346253871917725, 4.544016361236572, 12.389036178588867, -0.7565204501152039, 0.1570335179567337, 9.560468673706055, -0.8859707117080688, -0.8466528654098511, 0.1011890321969986, 
466, 407774563, 0.9345507621765137, 4.544022560119629, 12.3892822265625, -0.7535876631736755, 0.16563139855861664, 9.595876693725586, -1.0158476829528809, -0.7342191934585571, 0.209088996052742, 
467, 407782896, 0.9340718984603882, 4.543704509735107, 12.389780044555664, -0.7558623552322388, 0.16718339920043945, 9.577749252319336, -1.0681777000427246, -0.7694132328033447, 0.23262850940227509, 
468, 407791229, 0.9344203472137451, 4.543898105621338, 12.390007972717285, -0.7581655979156494, 0.1610247939825058, 9.577520370483398, -0.9649010300636292, -0.711883544921875, 0.2064507156610489, 
469, 407799562, 0.9347133040428162, 4.544302940368652, 12.390177726745605, -0.7553545236587524, 0.1442728489637375, 9.535061836242676, -0.9745319485664368, -0.6837847828865051, 0.21108689904212952, 
470, 407807895, 0.9349210262298584, 4.544441223144531, 12.390113830566406, -0.7507553696632385, 0.15415793657302856, 9.541662216186523, -0.978502094745636, -0.718312680721283, 0.17292167246341705, 
471, 407816228, 0.9350362420082092, 4.544394493103027, 12.39025592803955, -0.7531155347824097, 0.15046736598014832, 9.558538436889648, -0.9953819513320923, -0.7378564476966858, 0.2057335376739502, 
472, 407824561, 0.9349974393844604, 4.544456958770752, 12.389992713928223, -0.7358701825141907, 0.13964495062828064, 9.567950248718262, -1.0063960552215576, -0.7281485795974731, 0.1484857052564621, 
473, 407832894, 0.9350675344467163, 4.545078277587891, 12.389703750610352, -0.7536235451698303, 0.15807783603668213, 9.579466819763184, -0.9975335597991943, -0.6580169200897217, 0.17279364168643951, 
474, 407841227, 0.9356977343559265, 4.545706272125244, 12.389738082885742, -0.7675715684890747, 0.15691906213760376, 9.546241760253906, -0.9288361668586731, -0.6606807112693787, 0.18175861239433289, 
475, 407849560, 0.9354860782623291, 4.54572057723999, 12.389947891235352, -0.7406697273254395, 0.15517377853393555, 9.581633567810059, -1.03411066532135, -0.7297878861427307, 0.2047858089208603, 
476, 407857893, 0.9360315203666687, 4.546018600463867, 12.390134811401367, -0.7390746474266052, 0.14628994464874268, 9.55042552947998, -0.9401063919067383, -0.6990252733230591, 0.201763316988945, 
477, 407866226, 0.9356181025505066, 4.546855926513672, 12.39075756072998, -0.738731324672699, 0.16445817053318024, 9.524568557739258, -1.0608391761779785, -0.6313908100128174, 0.23520268499851227, 
478, 407874559, 0.9354516267776489, 4.548214435577393, 12.390685081481934, -0.763401448726654, 0.1589433252811432, 9.53878116607666, -1.0234295129776, -0.5723884701728821, 0.16810621321201324, 
479, 407882892, 0.9362369775772095, 4.548201084136963, 12.391070365905762, -0.7498182058334351, 0.15012386441230774, 9.543959617614746, -0.9164644479751587, -0.7336301207542419, 0.23810991644859314, 
480, 407891225, 0.9365353584289551, 4.547671318054199, 12.391230583190918, -0.7544246315956116, 0.1610247939825058, 9.570625305175781, -0.9708691239356995, -0.7991001009941101, 0.1984078586101532, 
481, 407899558, 0.936484694480896, 4.548099040985107, 12.39134407043457, -0.7336456179618835, 0.16715478897094727, 9.578307151794434, -1.0087782144546509, -0.6815563440322876, 0.1453607827425003, 
482, 407907891, 0.9371208548545837, 4.547983646392822, 12.390533447265625, -0.7562987208366394, 0.1709100306034088, 9.564237594604492, -0.9204730987548828, -0.7506507635116577, 0.0824650228023529, 
483, 407916224, 0.937641441822052, 4.548531532287598, 12.391530990600586, -0.7496894598007202, 0.16425073146820068, 9.533931732177734, -0.951965868473053, -0.664138674736023, 0.27622389793395996, 
484, 407924557, 0.9370329976081848, 4.548916816711426, 12.39146614074707, -0.7538095116615295, 0.15098936855793, 9.552292823791504, -1.0773475170135498, -0.6893942952156067, 0.1699248105287552, 
485, 407932890, 0.937424898147583, 4.548680782318115, 12.391788482666016, -0.7433663606643677, 0.1496303230524063, 9.555089950561523, -0.9618271589279175, -0.7599102854728699, 0.22294628620147705, 
486, 407941223, 0.9369140267372131, 4.548801422119141, 12.392078399658203, -0.7567850947380066, 0.14928698539733887, 9.517887115478516, -1.0688436031341553, -0.7205668091773987, 0.2123420089483261, 
487, 407949556, 0.9372599124908447, 4.549534320831299, 12.39316177368164, -0.740447998046875, 0.14825697243213654, 9.54727840423584, -0.971381425857544, -0.6430069804191589, 0.2639290690422058, 
488, 407957889, 0.9372683167457581, 4.549839496612549, 12.39287281036377, -0.7331735491752625, 0.17012321949005127, 9.548730850219727, -1.0005944967269897, -0.698833167552948, 0.14547604322433472, 
489, 407966222, 0.9371999502182007, 4.549585819244385, 12.393319129943848, -0.7330734133720398, 0.15375036001205444, 9.52773666381836, -1.0183196067810059, -0.7628943920135498, 0.2315654754638672, 
490, 407974555, 0.9372316598892212, 4.550134181976318, 12.393731117248535, -0.7403408885002136, 0.133479043841362, 9.565460205078125, -1.0042957067489624, -0.6688260436058044, 0.22765929996967316, 
491, 407982888, 0.9380212426185608, 4.549726486206055, 12.394146919250488, -0.7473862767219543, 0.15412230789661407, 9.567707061767578, -0.9139926433563232, -0.7803632020950317, 0.20502912998199463, 
492, 407991221, 0.9387911558151245, 4.549001216888428, 12.394867897033691, -0.7371577024459839, 0.14330005645751953, 9.579652786254883, -0.9189234375953674, -0.8210769891738892, 0.26720768213272095, 
493, 407999554, 0.9387173056602478, 4.549871444702148, 12.394560813903809, -0.7579081058502197, 0.16360697150230408, 9.57870864868164, -1.0119799375534058, -0.6290727853775024, 0.14023791253566742, 
494, 408007887, 0.9392582774162292, 4.549643039703369, 12.394457817077637, -0.7576507329940796, 0.15597474575042725, 9.562591552734375, -0.9395941495895386, -0.7627022862434387, 0.1673377901315689, 
495, 408016220, 0.9393928647041321, 4.549803256988525, 12.393507957458496, -0.7708476185798645, 0.15355712175369263, 9.58188247680664, -0.9811404347419739, -0.7147524356842041, 0.07960904389619827, 
496, 408024553, 0.9393138885498047, 4.549609184265137, 12.393917083740234, -0.7500326037406921, 0.17285579442977905, 9.573488235473633, -1.0182554721832275, -0.757733166217804, 0.22763369977474213, 
497, 408032886, 0.9396260380744934, 4.549919128417969, 12.39378547668457, -0.7443034052848816, 0.16604609787464142, 9.582334518432617, -0.9669629335403442, -0.6953239440917969, 0.15600349009037018, 
498, 408041219, 0.939448893070221, 4.550732612609863, 12.39383602142334, -0.7528008222579956, 0.16328522562980652, 9.548588752746582, -1.0267337560653687, -0.6382426023483276, 0.18350036442279816, 
499, 408049552, 0.9401531219482422, 4.550778388977051, 12.39399242401123, -0.7675715684890747, 0.1721331626176834, 9.57224178314209, -0.9238669872283936, -0.7263556718826294, 0.20701424777507782, 
500, 408057885, 0.9403303861618042, 4.55141019821167, 12.393718719482422, -0.7619637250900269, 0.15544557571411133, 9.581819534301758, -0.9796164631843567, -0.6604117751121521, 0.1458858698606491, 
501, 408066218, 0.940073549747467, 4.551364898681641, 12.394218444824219, -0.7428156137466431, 0.16162563860416412, 9.56341552734375, -1.0405269861221313, -0.7365372776985168, 0.20966531336307526, 
502, 408074551, 0.9397426843643188, 4.55105447769165, 12.39406681060791, -0.7615488767623901, 0.15179763734340668, 9.570003509521484, -1.0421662330627441, -0.7732168436050415, 0.16171546280384064, 
503, 408082884, 0.9393599033355713, 4.550922870635986, 12.39395809173584, -0.7516995668411255, 0.1342587172985077, 9.557327270507812, -1.0529755353927612, -0.7477819323539734, 0.18586969375610352, 
504, 408091217, 0.9391834735870361, 4.551795959472656, 12.394426345825195, -0.7462489604949951, 0.1466761976480484, 9.568694114685059, -1.0290391445159912, -0.6298156380653381, 0.23291023075580597, 
505, 408099550, 0.9397653341293335, 4.551577568054199, 12.394020080566406, -0.7440029382705688, 0.15995188057422638, 9.618334770202637, -0.9281959533691406, -0.7609605193138123, 0.07761113345623016, 
506, 408107883, 0.9392399191856384, 4.550894260406494, 12.39302921295166, -0.7462347149848938, 0.15917932987213135, 9.556319236755371, -1.0586491823196411, -0.818848729133606, 0.06354891508817673, 
507, 408116216, 0.9390527606010437, 4.550999641418457, 12.391843795776367, -0.7390961050987244, 0.15538835525512695, 9.539088249206543, -1.0180120468139648, -0.7224494218826294, 0.045682985335588455, 
508, 408124549, 0.9397104382514954, 4.550894737243652, 12.391064643859863, -0.7533231973648071, 0.15942247211933136, 9.575352668762207, -0.9187570214271545, -0.7492419481277466, 0.08699874579906464, 
509, 408132882, 0.9390544295310974, 4.551102161407471, 12.392378807067871, -0.7454835772514343, 0.1630275994539261, 9.578694343566895, -1.0965197086334229, -0.7044938802719116, 0.32936063408851624, 
510, 408141215, 0.9388459920883179, 4.551224231719971, 12.39220142364502, -0.752479076385498, 0.1745508313179016, 9.56773567199707, -1.0282065868377686, -0.7210662961006165, 0.15800140798091888, 
511, 408149548, 0.9400491714477539, 4.551039218902588, 12.392008781433105, -0.7390245795249939, 0.17371393740177155, 9.544989585876465, -0.859101414680481, -0.754902720451355, 0.14327320456504822, 
512, 408157881, 0.9412112832069397, 4.5514235496521, 12.392012596130371, -0.7350835204124451, 0.17000865936279297, 9.580059051513672, -0.8652999997138977, -0.689227819442749, 0.1798759549856186, 
513, 408166214, 0.941267192363739, 4.551823616027832, 12.392071723937988, -0.7520570755004883, 0.18553043901920319, 9.567886352539062, -0.9996339678764343, -0.6845019459724426, 0.17876175045967102, 
514, 408174547, 0.9414504766464233, 4.5510711669921875, 12.392193794250488, -0.749496340751648, 0.18600967526435852, 9.56596851348877, -0.9840349555015564, -0.8250473737716675, 0.19625627994537354, 
515, 408182880, 0.9415246248245239, 4.55039119720459, 12.391672134399414, -0.7495034337043762, 0.14873634278774261, 9.560420036315918, -0.9916166663169861, -0.8152626752853394, 0.11472617089748383, 
516, 408191213, 0.9416880011558533, 4.550129413604736, 12.391948699951172, -0.7416567206382751, 0.1747584342956543, 9.569446563720703, -0.9875952005386353, -0.7662370204925537, 0.21405816078186035, 
517, 408199546, 0.9412093758583069, 4.549931049346924, 12.391794204711914, -0.7595102787017822, 0.14740584790706635, 9.573830604553223, -1.0624655485153198, -0.7562987208366394, 0.1697455495595932, 
518, 408207879, 0.9405533671379089, 4.549891948699951, 12.391093254089355, -0.7417784333229065, 0.15613225102424622, 9.573293685913086, -1.0770658254623413, -0.7410582304000854, 0.09682179987430573, 
519, 408216212, 0.9406251907348633, 4.549482822418213, 12.390824317932129, -0.7605544924736023, 0.15300661325454712, 9.57608413696289, -0.9971879124641418, -0.7816952466964722, 0.16507095098495483, 
520, 408224545, 0.9400154948234558, 4.549610614776611, 12.39091968536377, -0.7489169239997864, 0.16089610755443573, 9.589810371398926, -1.0786665678024292, -0.7202722430229187, 0.1896093636751175, 
521, 408232878, 0.9401696920394897, 4.549559116363525, 12.391631126403809, -0.7613843679428101, 0.16069577634334564, 9.568679809570312, -0.9902079701423645, -0.7375491261482239, 0.22261333465576172, 
522, 408241211, 0.9404898285865784, 4.548610210418701, 12.390954971313477, -0.7520570755004883, 0.15831387042999268, 9.569452285766602, -0.9599959850311279, -0.850802481174469, 0.10031814873218536, 
523, 408249544, 0.9408994317054749, 4.548373699188232, 12.391214370727539, -0.7726787328720093, 0.1615755707025528, 9.54641342163086, -0.9606490135192871, -0.7591930627822876, 0.236470565199852, 
524, 408257877, 0.9405728578567505, 4.549269676208496, 12.39160442352295, -0.7596963047981262, 0.14463049173355103, 9.54493236541748, -1.0474300384521484, -0.6272285580635071, 0.2239452600479126, 
525, 408266210, 0.9400990605354309, 4.549818515777588, 12.391695022583008, -0.7622070908546448, 0.15669719874858856, 9.598105430603027, -1.0635159015655518, -0.6669563055038452, 0.17845438420772552, 
526, 408274543, 0.9401066303253174, 4.5500593185424805, 12.392065048217773, -0.7615703344345093, 0.16779854893684387, 9.58621883392334, -1.0083811283111572, -0.7053648233413696, 0.22275419533252716, 
527, 408282876, 0.9398590326309204, 4.549544334411621, 12.391477584838867, -0.7565919756889343, 0.1515115201473236, 9.594094276428223, -1.0306142568588257, -0.7950401902198792, 0.11105051636695862, 
528, 408291209, 0.9399527311325073, 4.548503398895264, 12.391497611999512, -0.7577078938484192, 0.16315627098083496, 9.546148300170898, -0.9931663870811462, -0.860817551612854, 0.18361562490463257, 
529, 408299542, 0.939908504486084, 4.549036502838135, 12.391761779785156, -0.7634372115135193, 0.14591084420681, 9.557750701904297, -1.0146310329437256, -0.6671739220619202, 0.21255971491336823, 
530, 408307875, 0.9399088621139526, 4.5486249923706055, 12.39205265045166, -0.733709990978241, 0.16702604293823242, 9.581562042236328, -1.0057685375213623, -0.7835906744003296, 0.21560780704021454, 
531, 408316208, 0.9400177001953125, 4.5480756759643555, 12.392711639404297, -0.7704970836639404, 0.15950839221477509, 9.560818672180176, -0.9991728067398071, -0.7973583340644836, 0.24733105301856995, 
532, 408324541, 0.9397888779640198, 4.547410011291504, 12.392228126525879, -0.7431519031524658, 0.16166852414608002, 9.566733360290527, -1.0285524129867554, -0.8158006072044373, 0.12410097569227219, 
533, 408332874, 0.9391674399375916, 4.5482611656188965, 12.392252922058105, -0.7651682496070862, 0.1461111158132553, 9.587040901184082, -1.0806132555007935, -0.6303151249885559, 0.18128474056720734, 
534, 408341207, 0.9390383362770081, 4.549011707305908, 12.392312049865723, -0.7594531178474426, 0.16698311269283295, 9.576604843139648, -1.0195233821868896, -0.6451457142829895, 0.18456336855888367, 
535, 408349540, 0.9380720853805542, 4.548952579498291, 12.39261245727539, -0.7461847066879272, 0.14945144951343536, 9.558307647705078, -1.1244263648986816, -0.7394701242446899, 0.19899699091911316, 
536, 408357873, 0.9385111331939697, 4.54921817779541, 12.392483711242676, -0.7481158375740051, 0.15412230789661407, 9.580153465270996, -0.9504545331001282, -0.7034820914268494, 0.1633419692516327, 
537, 408366206, 0.9381604194641113, 4.548795700073242, 12.392487525939941, -0.7481658458709717, 0.14248469471931458, 9.556534767150879, -1.0476350784301758, -0.7831680774688721, 0.16226616501808167, 
538, 408374539, 0.9378886222839355, 4.549819469451904, 12.392427444458008, -0.7299978137016296, 0.16769827902317047, 9.561511993408203, -1.0359163284301758, -0.6131535172462463, 0.1695277988910675, 
539, 408382872, 0.9381231665611267, 4.549529552459717, 12.391754150390625, -0.7573502063751221, 0.15897181630134583, 9.549072265625, -0.9733793139457703, -0.7678250074386597, 0.11956723779439926, 
540, 408391205, 0.9378781318664551, 4.550171852111816, 12.391072273254395, -0.7545533776283264, 0.15256299078464508, 9.524174690246582, -1.0283602476119995, -0.6596177816390991, 0.09657846391201019, 
541, 408399538, 0.9384711980819702, 4.550078392028809, 12.389896392822266, -0.7431732416152954, 0.17059530317783356, 9.5455904006958, -0.9260443449020386, -0.7448491454124451, 0.07497287541627884, 
542, 408407871, 0.938381552696228, 4.549722194671631, 12.38974666595459, -0.7438883781433105, 0.1565544307231903, 9.589195251464844, -1.0131582021713257, -0.7783525586128235, 0.16295774281024933, 
543, 408416204, 0.9380142092704773, 4.549610614776611, 12.389328002929688, -0.7440673112869263, 0.16080306470394135, 9.583515167236328, -1.0493639707565308, -0.7456815838813782, 0.15126484632492065, 
544, 408424537, 0.938044011592865, 4.549389362335205, 12.388222694396973, -0.7563487887382507, 0.16381441056728363, 9.538766860961914, -0.9908353686332703, -0.7642263770103455, 0.04798826575279236, 
545, 408432870, 0.9380398392677307, 4.550103664398193, 12.38840389251709, -0.7317858934402466, 0.1561751663684845, 9.54845142364502, -1.010481595993042, -0.6458116769790649, 0.23102757334709167, 
546, 408441203, 0.9383472204208374, 4.550539016723633, 12.387923240661621, -0.749768078327179, 0.16129672527313232, 9.557866096496582, -0.9631081223487854, -0.6836055517196655, 0.12241043895483017, 
547, 408449536, 0.9380993843078613, 4.551003456115723, 12.387474060058594, -0.7681795358657837, 0.17251239717006683, 9.56751537322998, -1.03079354763031, -0.676881730556488, 0.12101445347070694, 
548, 408457869, 0.9381261467933655, 4.551180362701416, 12.387792587280273, -0.7583658695220947, 0.13484539091587067, 9.592827796936035, -1.0045135021209717, -0.7145603895187378, 0.21555660665035248, 
549, 408466202, 0.9376029968261719, 4.551196575164795, 12.387733459472656, -0.756241500377655, 0.1625698208808899, 9.557378768920898, -1.0683056116104126, -0.7298904061317444, 0.16621075570583344, 
550, 408474535, 0.9378042817115784, 4.551548480987549, 12.388395309448242, -0.7496680021286011, 0.1536216139793396, 9.546634674072266, -0.9856230020523071, -0.6925961971282959, 0.25678274035453796, 
551, 408482868, 0.9374613165855408, 4.551485538482666, 12.38845443725586, -0.7648606300354004, 0.16855674982070923, 9.552278518676758, -1.0466104745864868, -0.7398543953895569, 0.1671328991651535, 
552, 408491201, 0.9371318221092224, 4.551441669464111, 12.388640403747559, -0.7479084134101868, 0.15334264934062958, 9.55395221710205, -1.0455987453460693, -0.7402002215385437, 0.20305685698986053, 
553, 408499534, 0.9373452663421631, 4.551261901855469, 12.389284133911133, -0.7511700987815857, 0.15598919987678528, 9.56943130493164, -0.9867499470710754, -0.7527639269828796, 0.24756157398223877, 
554, 408507867, 0.9374431371688843, 4.550839900970459, 12.388840675354004, -0.7346183657646179, 0.16360710561275482, 9.540105819702148, -0.9884404540061951, -0.7872918844223022, 0.12602204084396362, 
555, 408516200, 0.9371000528335571, 4.550862789154053, 12.388792037963867, -0.7572142481803894, 0.16314204037189484, 9.555597305297852, -1.0463542938232422, -0.7294036746025085, 0.16756829619407654, 
556, 408524533, 0.9365931153297424, 4.55173397064209, 12.388826370239258, -0.7370432615280151, 0.16736221313476562, 9.562821388244629, -1.0664103031158447, -0.6308401823043823, 0.18173301219940186, 
557, 408532866, 0.9364748597145081, 4.550780296325684, 12.389394760131836, -0.75289386510849, 0.14234882593154907, 9.579509735107422, -1.0254274606704712, -0.8453593850135803, 0.24886789917945862, 
558, 408541199, 0.9364469051361084, 4.551148414611816, 12.389577865600586, -0.7751535773277283, 0.15842115879058838, 9.582191467285156, -1.0086500644683838, -0.6906238198280334, 0.20089243352413177, 
559, 408549532, 0.936275064945221, 4.551177024841309, 12.388547897338867, -0.749203085899353, 0.1458822339773178, 9.548401832580566, -1.0196386575698853, -0.7304026484489441, 0.0797371193766594, 
560, 408557865, 0.935471773147583, 4.551977157592773, 12.388808250427246, -0.7621569037437439, 0.14639723300933838, 9.570904731750488, -1.103550910949707, -0.6394977569580078, 0.20798759162425995, 
561, 408566198, 0.9349396824836731, 4.551604747772217, 12.389022827148438, -0.7535879015922546, 0.1455102264881134, 9.55598258972168, -1.0701755285263062, -0.7762009501457214, 0.1974601298570633, 
562, 408574531, 0.9353644251823425, 4.551700592041016, 12.389849662780762, -0.7483588457107544, 0.1547948569059372, 9.572701454162598, -0.9620833992958069, -0.7228208780288696, 0.27655690908432007, 
563, 408582864, 0.9352235794067383, 4.552455902099609, 12.389931678771973, -0.7557121515274048, 0.16022367775440216, 9.58243465423584, -1.0226353406906128, -0.6408552527427673, 0.1738181859254837, 
564, 408591197, 0.9350093603134155, 4.553116798400879, 12.389521598815918, -0.7554188370704651, 0.1379498392343521, 9.53425407409668, -1.0270155668258667, -0.6573253273963928, 0.12835292518138885, 
565, 408599530, 0.9353213310241699, 4.552907466888428, 12.389245986938477, -0.7240965962409973, 0.15080338716506958, 9.58349323272705, -0.9650931358337402, -0.7579764127731323, 0.14319637417793274, 
566, 408607863, 0.9363733530044556, 4.552502632141113, 12.387843132019043, -0.7426510453224182, 0.14993789792060852, 9.603507041931152, -0.8647750616073608, -0.7871383428573608, 0.011808162555098534, 
567, 408616196, 0.937141478061676, 4.552281379699707, 12.387371063232422, -0.7606619596481323, 0.1564827412366867, 9.580582618713379, -0.9101377725601196, -0.7597565650939941, 0.12994101643562317, 
568, 408624529, 0.9376237392425537, 4.5521931648254395, 12.387389183044434, -0.7662268280982971, 0.1501953899860382, 9.569059371948242, -0.947239875793457, -0.7458352446556091, 0.18148964643478394, 
569, 408632862, 0.9377124309539795, 4.5516533851623535, 12.386850357055664, -0.7526006102561951, 0.18198275566101074, 9.56986141204834, -0.9907841682434082, -0.7976016402244568, 0.11740284413099289, 
570, 408641195, 0.9379042983055115, 4.551077842712402, 12.386940002441406, -0.7685515284538269, 0.14948011934757233, 9.56752872467041, -0.9818960428237915, -0.8044918775558472, 0.18976305425167084, 
571, 408649528, 0.9388598799705505, 4.550455093383789, 12.386969566345215, -0.7426151633262634, 0.15175488591194153, 9.538939476013184, -0.8924895524978638, -0.806912362575531, 0.18754741549491882, 
572, 408657861, 0.9385555982589722, 4.550198554992676, 12.3873929977417, -0.7500542402267456, 0.16315634548664093, 9.594115257263184, -1.0447916984558105, -0.7650843262672424, 0.23209057748317719, 
573, 408666194, 0.9384539127349854, 4.55148983001709, 12.387678146362305, -0.7410416603088379, 0.17105308175086975, 9.55740737915039, -1.0193952322006226, -0.5773704648017883, 0.18633075058460236, 
574, 408674527, 0.9388161301612854, 4.552463054656982, 12.387471199035645, -0.7644815444946289, 0.18676072359085083, 9.554144859313965, -0.9588944315910339, -0.6193522214889526, 0.1529810130596161, 
575, 408682860, 0.9392113089561462, 4.552716255187988, 12.386897087097168, -0.7498325109481812, 0.18377083539962769, 9.566977500915527, -0.952759861946106, -0.702226996421814, 0.0994088351726532, 
576, 408691193, 0.9393318295478821, 4.552348613739014, 12.38622760772705, -0.7492817640304565, 0.1671619415283203, 9.574223518371582, -0.9834969639778137, -0.7811188697814941, 0.10058709979057312, 
577, 408699526, 0.938814640045166, 4.552119731903076, 12.386579513549805, -0.7355983257293701, 0.16300621628761292, 9.585074424743652, -1.0715587139129639, -0.7587576508522034, 0.21433991193771362, 
578, 408707859, 0.938148021697998, 4.552812576293945, 12.3857421875, -0.7371648550033569, 0.16176153719425201, 9.58830738067627, -1.0765020847320557, -0.6539185643196106, 0.07958341389894485, 
579, 408716192, 0.9369866847991943, 4.552204608917236, 12.385698318481445, -0.7545462250709534, 0.18524432182312012, 9.567042350769043, -1.1473766565322876, -0.8049144148826599, 0.21303358674049377, 
580, 408724525, 0.9365172386169434, 4.552336692810059, 12.385544776916504, -0.7406196594238281, 0.1593295782804489, 9.576390266418457, -1.059584140777588, -0.7193758487701416, 0.16192038357257843, 
581, 408732858, 0.935566246509552, 4.552336692810059, 12.385748863220215, -0.7512058615684509, 0.16084598004817963, 9.563379287719727, -1.1214423179626465, -0.7320547699928284, 0.19447606801986694, 
582, 408741191, 0.9350761771202087, 4.552722930908203, 12.385723114013672, -0.7540813088417053, 0.1652163714170456, 9.560861587524414, -1.063144326210022, -0.688946008682251, 0.1760082095861435, 
583, 408749524, 0.9342154860496521, 4.55231237411499, 12.386670112609863, -0.7724283337593079, 0.15380042791366577, 9.564760208129883, -1.118163824081421, -0.7804144620895386, 0.2870458960533142, 
584, 408757857, 0.9335288405418396, 4.551880359649658, 12.386561393737793, -0.7548753619194031, 0.14131149649620056, 9.552685737609863, -1.0853136777877808, -0.78657466173172, 0.16749148070812225, 
585, 408766190, 0.9325389862060547, 4.55197286605835, 12.38749885559082, -0.7495535612106323, 0.16507330536842346, 9.566326141357422, -1.132533311843872, -0.7197598814964294, 0.266938716173172, 
586, 408774523, 0.9326483607292175, 4.552061557769775, 12.38807201385498, -0.7525720596313477, 0.16846375167369843, 9.586233139038086, -0.9970213174819946, -0.7234355807304382, 0.24932894110679626, 
587, 408782856, 0.9325212836265564, 4.55230712890625, 12.387670516967773, -0.7551113367080688, 0.16370712220668793, 9.607111930847168, -1.0192800760269165, -0.7036358714103699, 0.1482807993888855, 
588, 408791189, 0.9324667453765869, 4.5530900955200195, 12.387642860412598, -0.7668634653091431, 0.1438436657190323, 9.549781799316406, -1.009751558303833, -0.6415213942527771, 0.17463785409927368, 
589, 408799522, 0.932572066783905, 4.554414749145508, 12.387812614440918, -0.7302194237709045, 0.13479532301425934, 9.572778701782227, -0.998404324054718, -0.5718249678611755, 0.2222547084093094, 
590, 408807855, 0.9329783320426941, 4.554318904876709, 12.387481689453125, -0.7547752857208252, 0.13699111342430115, 9.561053276062012, -0.9524524807929993, -0.7474873661994934, 0.14167232811450958, 
591, 408816188, 0.9329361915588379, 4.554183006286621, 12.387578010559082, -0.7567564845085144, 0.15988034009933472, 9.57297134399414, -1.0115957260131836, -0.7482045292854309, 0.19425834715366364, 
592, 408824521, 0.934098482131958, 4.553898334503174, 12.387954711914062, -0.7564632296562195, 0.1445661038160324, 9.547779083251953, -0.869052529335022, -0.7695412635803223, 0.22366347908973694, 
593, 408832854, 0.9341939091682434, 4.555333614349365, 12.387964248657227, -0.7559124231338501, 0.14390090107917786, 9.573028564453125, -0.9957661628723145, -0.55955570936203, 0.18478110432624817, 
594, 408841187, 0.9342858791351318, 4.555572509765625, 12.38772201538086, -0.770740270614624, 0.15490196645259857, 9.542157173156738, -0.991334855556488, -0.7065558433532715, 0.1523790955543518, 
595, 408849520, 0.9350100159645081, 4.555201530456543, 12.387594223022461, -0.7546177506446838, 0.13714860379695892, 9.60086727142334, -0.9142616987228394, -0.7775841355323792, 0.12517675757408142, 
596, 408857853, 0.9348455667495728, 4.556222438812256, 12.387927055358887, -0.7545749545097351, 0.1503240019083023, 9.573478698730469, -1.027079701423645, -0.6121547222137451, 0.21706785261631012, 
597, 408866186, 0.9344818592071533, 4.556099891662598, 12.38827896118164, -0.7566563487052917, 0.17974379658699036, 9.573286056518555, -1.054076910018921, -0.7465524673461914, 0.22280541062355042, 
598, 408874519, 0.9352225065231323, 4.555640697479248, 12.38784122467041, -0.7497538328170776, 0.16828493773937225, 9.546928405761719, -0.9120844602584839, -0.7912620902061462, 0.12842977046966553, 
599, 408882852, 0.9358021020889282, 4.556039333343506, 12.387083053588867, -0.7442319393157959, 0.15053148567676544, 9.551848411560059, -0.9294764995574951, -0.6863461136817932, 0.09285160154104233, 
600, 408891185, 0.9359362721443176, 4.556442737579346, 12.387091636657715, -0.7474649548530579, 0.15541696548461914, 9.530956268310547, -0.9876209497451782, -0.6861669421195984, 0.18027298152446747, 
601, 408899518, 0.9361867308616638, 4.557053089141846, 12.387200355529785, -0.7574573159217834, 0.1665898561477661, 9.55417537689209, -0.9782716631889343, -0.6588109135627747, 0.19920189678668976, 
602, 408907851, 0.9364339113235474, 4.5574541091918945, 12.386857032775879, -0.755976676940918, 0.16138970851898193, 9.57953929901123, -0.9722907543182373, -0.6876397728919983, 0.13863706588745117, 
603, 408916184, 0.9360687136650085, 4.557376384735107, 12.386341094970703, -0.7522358894348145, 0.1731417179107666, 9.55225658416748, -1.0454833507537842, -0.7426207065582275, 0.12635502219200134, 
