sep=,
PacketCounter,SampleTimeFine,Euler_X,Euler_Y,Euler_Z,Acc_X,Acc_Y,Acc_Z,Gyr_X,Gyr_Y,Gyr_Z,
0, 403858053, -9.16113567352295, -2.178856611251831, 3.4326834678649902, 0, 0, 0, 0, 0, 0, 
1, 403866386, -9.157388687133789, -2.1789493560791016, 3.4350152015686035, 0.3489872217178345, -1.5098650455474854, 9.73012638092041, -0.46288764476776123, -0.5693403482437134, 0.5588769912719727, 
2, 403874719, -9.155531883239746, -2.176769971847534, 3.4363701343536377, 0.3798302710056305, -1.485466718673706, 9.711507797241211, -0.6764976382255554, -0.3030676245689392, 0.4817141592502594, 
3, 403883052, -9.153512954711914, -2.1728734970092773, 3.4373626708984375, 0.4099079668521881, -1.4818615913391113, 9.691387176513672, -0.6790077090263367, -0.07243704795837402, 0.4699571430683136, 
4, 403891385, -9.152921676635742, -2.167501449584961, 3.436669111251831, 0.4223041534423828, -1.4830563068389893, 9.66565227508545, -0.8367657661437988, 0.11499510705471039, 0.30103129148483276, 
5, 403899718, -9.152764320373535, -2.1630685329437256, 3.4352753162384033, 0.4341060519218445, -1.49947190284729, 9.576269149780273, -0.9124047756195068, 0.03712783381342888, 0.2013406902551651, 
6, 403908051, -9.152588844299316, -2.1621549129486084, 3.434708833694458, 0.4202295243740082, -1.5129050016403198, 9.479168891906738, -0.8859579563140869, -0.41539883613586426, 0.22975966334342957, 
7, 403916384, -9.152899742126465, -2.1632823944091797, 3.435304880142212, 0.4204438328742981, -1.5040425062179565, 9.42773151397705, -0.9595988988876343, -0.6601428985595703, 0.3310127556324005, 
8, 403924717, -9.154997825622559, -2.166083574295044, 3.4362857341766357, 0.37774863839149475, -1.5103087425231934, 9.453883171081543, -1.1520130634307861, -0.8854200839996338, 0.34341004490852356, 
9, 403933050, -9.158292770385742, -2.1691033840179443, 3.438727378845215, 0.36215558648109436, -1.5346424579620361, 9.583772659301758, -1.3088232278823853, -0.917694091796875, 0.5083913207054138, 
10, 403941383, -9.163969039916992, -2.171118974685669, 3.4419384002685547, 0.36401432752609253, -1.5397335290908813, 9.679141998291016, -1.5725219249725342, -0.8358052968978882, 0.6217855215072632, 
11, 403949716, -9.168256759643555, -2.169729709625244, 3.445582389831543, 0.3491155803203583, -1.5215097665786743, 9.740933418273926, -1.4211801290512085, -0.41948428750038147, 0.7418010234832764, 
12, 403958049, -9.169743537902832, -2.1664140224456787, 3.4494404792785645, 0.37111809849739075, -1.5139492750167847, 9.708124160766602, -1.0663206577301025, -0.2162097692489624, 0.8009699583053589, 
13, 403966382, -9.17019271850586, -2.1643433570861816, 3.452486038208008, 0.3653882145881653, -1.500380277633667, 9.637839317321777, -0.9647472500801086, -0.32749080657958984, 0.6819277405738831, 
14, 403974715, -9.169852256774902, -2.162749767303467, 3.4552931785583496, 0.39020904898643494, -1.52791166305542, 9.583478927612305, -0.8520190715789795, -0.4002608358860016, 0.6432758569717407, 
15, 403983048, -9.167841911315918, -2.1630241870880127, 3.457282543182373, 0.4150651693344116, -1.5243853330612183, 9.575932502746582, -0.6751271486282349, -0.584094226360321, 0.505394458770752, 
16, 403991381, -9.16673469543457, -2.164924144744873, 3.4571633338928223, 0.41802629828453064, -1.5176117420196533, 9.506027221679688, -0.7722179293632507, -0.7577202916145325, 0.2304128259420395, 
17, 403999714, -9.167981147766113, -2.166778087615967, 3.455828905105591, 0.424335241317749, -1.5229833126068115, 9.480484962463379, -1.0801267623901367, -0.7078750133514404, 0.08651207387447357, 
18, 404008047, -9.170145034790039, -2.1693830490112305, 3.4540035724639893, 0.40754759311676025, -1.5367525815963745, 9.52281665802002, -1.1730295419692993, -0.8092561364173889, 0.014536078087985516, 
19, 404016380, -9.173212051391602, -2.171250581741333, 3.4525253772735596, 0.392633855342865, -1.53636634349823, 9.603306770324707, -1.2988721132278442, -0.7065942883491516, 0.0654059424996376, 
20, 404024713, -9.176092147827148, -2.170940399169922, 3.452739715576172, 0.4084344804286957, -1.5734752416610718, 9.650437355041504, -1.2509609460830688, -0.503716766834259, 0.311212956905365, 
21, 404033046, -9.176518440246582, -2.1694934368133545, 3.454359531402588, 0.406668096780777, -1.5596202611923218, 9.67598819732666, -0.9669244885444641, -0.3731609880924225, 0.5036014318466187, 
22, 404041379, -9.174214363098145, -2.1674375534057617, 3.4574105739593506, 0.40505149960517883, -1.5378540754318237, 9.653398513793945, -0.6159583330154419, -0.3507741689682007, 0.6813386678695679, 
23, 404049712, -9.171069145202637, -2.164724588394165, 3.461564779281616, 0.438161700963974, -1.4994933605194092, 9.645794868469238, -0.527973473072052, -0.27311182022094727, 0.8293121457099915, 
24, 404058045, -9.168279647827148, -2.162395477294922, 3.4643383026123047, 0.44234612584114075, -1.4577136039733887, 9.5810546875, -0.5569559335708618, -0.311674028635025, 0.6540979146957397, 
25, 404066378, -9.166868209838867, -2.160247802734375, 3.4652092456817627, 0.46324673295021057, -1.4533575773239136, 9.530054092407227, -0.7509581446647644, -0.2771204113960266, 0.43086984753608704, 
26, 404074711, -9.168163299560547, -2.15940260887146, 3.4648876190185547, 0.42094480991363525, -1.4635932445526123, 9.51644229888916, -1.0619021654129028, -0.42889755964279175, 0.2580890357494354, 
27, 404083044, -9.170577049255371, -2.1599111557006836, 3.464203357696533, 0.37976589798927307, -1.5005019903182983, 9.570775985717773, -1.2171884775161743, -0.5623348951339722, 0.19342590868473053, 
28, 404091377, -9.173084259033203, -2.1608190536499023, 3.4634172916412354, 0.39465096592903137, -1.5347282886505127, 9.593714714050293, -1.2101187705993652, -0.6277792453765869, 0.16991201043128967, 
29, 404099710, -9.175355911254883, -2.1597533226013184, 3.4629697799682617, 0.3623415529727936, -1.5466234683990479, 9.612576484680176, -1.199079155921936, -0.3790138065814972, 0.24908563494682312, 
30, 404108043, -9.176855087280273, -2.157932996749878, 3.4635798931121826, 0.36375781893730164, -1.54193115234375, 9.609966278076172, -1.0817915201187134, -0.331089586019516, 0.388094037771225, 
31, 404116376, -9.177116394042969, -2.155254602432251, 3.4655203819274902, 0.3732854127883911, -1.537911295890808, 9.611339569091797, -0.9473040103912354, -0.2343062311410904, 0.5602858066558838, 
32, 404124709, -9.175969123840332, -2.1534149646759033, 3.468285083770752, 0.3712754547595978, -1.5393776893615723, 9.576784133911133, -0.7555687427520752, -0.3707660436630249, 0.6431605815887451, 
33, 404133042, -9.175481796264648, -2.151934862136841, 3.47133731842041, 0.37240561842918396, -1.5287842750549316, 9.57571792602539, -0.8519037961959839, -0.39758414030075073, 0.6765871644020081, 
34, 404141375, -9.174379348754883, -2.1519408226013184, 3.4732184410095215, 0.4184052348136902, -1.5132125616073608, 9.609728813171387, -0.7644824981689453, -0.5714535713195801, 0.5031020045280457, 
35, 404149708, -9.174626350402832, -2.1517131328582764, 3.474332332611084, 0.4034128487110138, -1.5173110961914062, 9.625286102294922, -0.9490330219268799, -0.5074435472488403, 0.41465601325035095, 
36, 404158041, -9.1749267578125, -2.152243137359619, 3.4744348526000977, 0.4037849009037018, -1.5055804252624512, 9.618969917297363, -0.9415023922920227, -0.6008074879646301, 0.2827427387237549, 
37, 404166374, -9.174947738647461, -2.153569459915161, 3.473771572113037, 0.43244656920433044, -1.5127118825912476, 9.61557388305664, -0.9293357133865356, -0.6575430631637573, 0.17301136255264282, 
38, 404174707, -9.175557136535645, -2.154599189758301, 3.4731686115264893, 0.42182478308677673, -1.5019183158874512, 9.59769344329834, -0.9813581705093384, -0.6462727189064026, 0.1898142695426941, 
39, 404183040, -9.1754150390625, -2.1553075313568115, 3.4720041751861572, 0.4076405167579651, -1.5420598983764648, 9.557085037231445, -0.9132371544837952, -0.5749755501747131, 0.12153954803943634, 
40, 404191373, -9.175310134887695, -2.1553564071655273, 3.4722306728363037, 0.41276195645332336, -1.5333693027496338, 9.500770568847656, -0.8919644355773926, -0.545429527759552, 0.3068457543849945, 
41, 404199706, -9.175127983093262, -2.155527353286743, 3.472794532775879, 0.4048434793949127, -1.5600850582122803, 9.557119369506836, -0.8999049663543701, -0.5445842742919922, 0.34519022703170776, 
42, 404208039, -9.174034118652344, -2.1549198627471924, 3.4740090370178223, 0.3776412904262543, -1.5617519617080688, 9.589272499084473, -0.7679787874221802, -0.4856586754322052, 0.43505775928497314, 
43, 404216372, -9.172805786132812, -2.1537435054779053, 3.4767351150512695, 0.3754523992538452, -1.5209234952926636, 9.656960487365723, -0.7642646431922913, -0.4260031580924988, 0.6272413730621338, 
44, 404224705, -9.170811653137207, -2.1534481048583984, 3.4803693294525146, 0.391382098197937, -1.534148931503296, 9.654306411743164, -0.6496537923812866, -0.5699679255485535, 0.7171601057052612, 
45, 404233038, -9.168266296386719, -2.152453660964966, 3.4826598167419434, 0.38357120752334595, -1.4866039752960205, 9.649628639221191, -0.6085686087608337, -0.44092342257499695, 0.579201877117157, 
46, 404241371, -9.166092872619629, -2.1519172191619873, 3.483937978744507, 0.4125044643878937, -1.4908884763717651, 9.671937942504883, -0.6385628581047058, -0.4962502419948578, 0.4428829848766327, 
47, 404249704, -9.164016723632812, -2.1508445739746094, 3.4842021465301514, 0.42932114005088806, -1.4495165348052979, 9.624058723449707, -0.6735391020774841, -0.3921923339366913, 0.33093589544296265, 
48, 404258037, -9.161765098571777, -2.1513586044311523, 3.482417583465576, 0.4248216450214386, -1.4770835638046265, 9.561641693115234, -0.6434423923492432, -0.5621684789657593, 0.0585029199719429, 
49, 404266370, -9.161685943603516, -2.1512396335601807, 3.4802536964416504, 0.41976460814476013, -1.5045578479766846, 9.526436805725098, -0.9247122406959534, -0.4575086534023285, 0.023206496611237526, 
50, 404274703, -9.161952018737793, -2.151552200317383, 3.477970838546753, 0.40645310282707214, -1.5111881494522095, 9.550661087036133, -0.9477394223213196, -0.5284600853919983, 0.004021435044705868, 
51, 404283036, -9.162166595458984, -2.15287184715271, 3.476672649383545, 0.3666118085384369, -1.5141066312789917, 9.530927658081055, -0.9560128450393677, -0.6456964015960693, 0.1029692217707634, 
52, 404291369, -9.161766052246094, -2.1531565189361572, 3.4761927127838135, 0.3870401680469513, -1.53361976146698, 9.591424942016602, -0.8592551946640015, -0.559286892414093, 0.2185022532939911, 
53, 404299702, -9.16200065612793, -2.152327537536621, 3.4769458770751953, 0.4014747738838196, -1.5189348459243774, 9.644986152648926, -0.949519693851471, -0.4308570325374603, 0.3839702010154724, 
54, 404308035, -9.162267684936523, -2.1502726078033447, 3.4794037342071533, 0.38139674067497253, -1.5113813877105713, 9.637711524963379, -0.9263643622398376, -0.33867141604423523, 0.6105537414550781, 
55, 404316368, -9.163159370422363, -2.147784471511841, 3.4827680587768555, 0.41930681467056274, -1.467820644378662, 9.617212295532227, -1.015860676765442, -0.28198713064193726, 0.7192348837852478, 
56, 404324701, -9.16297435760498, -2.1454107761383057, 3.48516845703125, 0.4162529408931732, -1.494522213935852, 9.618464469909668, -0.8728946447372437, -0.3001348078250885, 0.6096699833869934, 
57, 404333034, -9.163975715637207, -2.14455509185791, 3.4874494075775146, 0.41866305470466614, -1.4797587394714355, 9.59516716003418, -1.0334062576293945, -0.45506247878074646, 0.563474714756012, 
58, 404341367, -9.164910316467285, -2.1450250148773193, 3.4887468814849854, 0.4058666229248047, -1.515902042388916, 9.588078498840332, -1.0118645429611206, -0.6159710884094238, 0.42451751232147217, 
59, 404349700, -9.165288925170898, -2.1452417373657227, 3.489276647567749, 0.40192538499832153, -1.4982845783233643, 9.580425262451172, -0.9672446846961975, -0.5497583150863647, 0.34475478529930115, 
60, 404358033, -9.165933609008789, -2.1459996700286865, 3.4887914657592773, 0.39686813950538635, -1.5196070671081543, 9.54879379272461, -0.9851874709129333, -0.6160351037979126, 0.20819248259067535, 
61, 404366366, -9.16695785522461, -2.146272897720337, 3.4879748821258545, 0.3553675413131714, -1.5145500898361206, 9.554803848266602, -1.0503629446029663, -0.530342698097229, 0.18236055970191956, 
62, 404374699, -9.169136047363281, -2.14703631401062, 3.4877142906188965, 0.35929444432258606, -1.5460155010223389, 9.580474853515625, -1.167932391166687, -0.6204537153244019, 0.23499780893325806, 
63, 404383032, -9.170516014099121, -2.1471469402313232, 3.4888811111450195, 0.3488294780254364, -1.558911919593811, 9.58513069152832, -1.08478844165802, -0.5497327446937561, 0.42254525423049927, 
64, 404391365, -9.17077350616455, -2.146928071975708, 3.4900052547454834, 0.3572419285774231, -1.5719016790390015, 9.613036155700684, -0.9318073987960815, -0.531277596950531, 0.41687166690826416, 
65, 404399698, -9.169697761535645, -2.145662546157837, 3.492363214492798, 0.40908539295196533, -1.5390700101852417, 9.612040519714355, -0.7839877009391785, -0.40881597995758057, 0.5891017317771912, 
66, 404408031, -9.166646003723145, -2.1462409496307373, 3.4947469234466553, 0.4116177260875702, -1.5230903625488281, 9.652854919433594, -0.5281527638435364, -0.6490519046783447, 0.5515257120132446, 
67, 404416364, -9.163355827331543, -2.1468617916107178, 3.496166944503784, 0.4218102991580963, -1.4993717670440674, 9.674957275390625, -0.5235804915428162, -0.6140756607055664, 0.43717092275619507, 
68, 404424697, -9.161041259765625, -2.1464743614196777, 3.4961557388305664, 0.4580680727958679, -1.4977695941925049, 9.697430610656738, -0.6274718642234802, -0.489103764295578, 0.28635433316230774, 
69, 404433030, -9.159258842468262, -2.145444631576538, 3.4950666427612305, 0.4437623620033264, -1.4888142347335815, 9.606261253356934, -0.7156231999397278, -0.3709324896335602, 0.16487880051136017, 
70, 404441363, -9.158004760742188, -2.1438331604003906, 3.4929659366607666, 0.44640880823135376, -1.4810888767242432, 9.548113822937012, -0.7645722031593323, -0.3041306436061859, 0.06336962431669235, 
71, 404449696, -9.158609390258789, -2.142876148223877, 3.4912869930267334, 0.4144071042537689, -1.4898227453231812, 9.476851463317871, -1.0042957067489624, -0.3696005940437317, 0.10483906418085098, 
72, 404458029, -9.16073989868164, -2.142441987991333, 3.4905309677124023, 0.4052083492279053, -1.4851804971694946, 9.487915992736816, -1.1643463373184204, -0.46922722458839417, 0.20005999505519867, 
73, 404466362, -9.16382884979248, -2.142106056213379, 3.490657091140747, 0.36920130252838135, -1.5371747016906738, 9.500364303588867, -1.2948250770568848, -0.475502610206604, 0.28886452317237854, 
74, 404474695, -9.165892601013184, -2.141707181930542, 3.4936163425445557, 0.3538222908973694, -1.5551925897598267, 9.603171348571777, -1.1403968334197998, -0.5452501773834229, 0.6387293338775635, 
75, 404483028, -9.165754318237305, -2.1412134170532227, 3.498173236846924, 0.33049023151397705, -1.533776879310608, 9.646860122680664, -0.887878954410553, -0.5404731631278992, 0.822882890701294, 
76, 404491361, -9.164411544799805, -2.1396920680999756, 3.5030531883239746, 0.3617192804813385, -1.5083986520767212, 9.663383483886719, -0.7221294045448303, -0.448210746049881, 0.8871490955352783, 
77, 404499694, -9.161293983459473, -2.139251232147217, 3.5070300102233887, 0.36640438437461853, -1.4912461042404175, 9.727344512939453, -0.5325967669487, -0.5374378561973572, 0.7609605193138123, 
78, 404508027, -9.158493995666504, -2.1376354694366455, 3.509481430053711, 0.41938599944114685, -1.4540225267410278, 9.692488670349121, -0.5580060482025146, -0.3901560306549072, 0.6024083495140076, 
79, 404516360, -9.156734466552734, -2.1373512744903564, 3.509690284729004, 0.41304054856300354, -1.4527281522750854, 9.549201965332031, -0.7128697037696838, -0.48482614755630493, 0.31002187728881836, 
80, 404524693, -9.15914249420166, -2.135359764099121, 3.5078868865966797, 0.4064817726612091, -1.4100470542907715, 9.454198837280273, -1.2022809982299805, -0.26469746232032776, 0.10469817370176315, 
81, 404533026, -9.165831565856934, -2.1374878883361816, 3.504819393157959, 0.42303213477134705, -1.4519834518432617, 9.44960880279541, -1.7416014671325684, -0.7076828479766846, -0.12109129130840302, 
82, 404541359, -9.173959732055664, -2.1387603282928467, 3.501405715942383, 0.36530545353889465, -1.5483205318450928, 9.465771675109863, -1.8957990407943726, -0.6201590299606323, -0.1488058865070343, 
83, 404549692, -9.178524017333984, -2.141298532485962, 3.5014090538024902, 0.356088250875473, -1.6140106916427612, 9.598895072937012, -1.4723575115203857, -0.8155059814453125, 0.23520271480083466, 
84, 404558025, -9.179177284240723, -2.141622304916382, 3.5043458938598633, 0.36172619462013245, -1.6196898221969604, 9.73358154296875, -0.9706514477729797, -0.6300076842308044, 0.6230534315109253, 
85, 404566358, -9.175320625305176, -2.140491485595703, 3.508761405944824, 0.3798728585243225, -1.5783463716506958, 9.745597839355469, -0.4420248866081238, -0.4642324447631836, 0.8294274210929871, 
86, 404574691, -9.169708251953125, -2.1377017498016357, 3.5136663913726807, 0.4040928781032562, -1.5456219911575317, 9.757737159729004, -0.21007513999938965, -0.29859793186187744, 0.9152734279632568, 
87, 404583024, -9.163804054260254, -2.1350319385528564, 3.516366481781006, 0.4415736198425293, -1.5135916471481323, 9.687660217285156, -0.20369718968868256, -0.24980281293392181, 0.6510626077651978, 
88, 404591357, -9.160326957702637, -2.133305311203003, 3.5175468921661377, 0.46452707052230835, -1.499622106552124, 9.632862091064453, -0.48214951157569885, -0.3525671064853668, 0.45362815260887146, 
89, 404599690, -9.159741401672363, -2.131904125213623, 3.516261577606201, 0.49616411328315735, -1.4839502573013306, 9.51107120513916, -0.8593831658363342, -0.3234565258026123, 0.1553887575864792, 
90, 404608023, -9.16394329071045, -2.1307082176208496, 3.5124382972717285, 0.48200148344039917, -1.4893935918807983, 9.437117576599121, -1.4267385005950928, -0.3204340636730194, -0.1499457210302353, 
91, 404616356, -9.169167518615723, -2.129945755004883, 3.5086746215820312, 0.45003542304039, -1.5036921501159668, 9.41658878326416, -1.5684107542037964, -0.350786954164505, -0.15030433237552643, 
92, 404624689, -9.173171043395996, -2.131324291229248, 3.506812572479248, 0.38965827226638794, -1.5517950057983398, 9.504597663879395, -1.3946951627731323, -0.6631269454956055, 0.0336955301463604, 
93, 404633022, -9.173748016357422, -2.13100004196167, 3.5065770149230957, 0.37619662284851074, -1.5594842433929443, 9.610023498535156, -0.9941909313201904, -0.47055912017822266, 0.25571969151496887, 
94, 404641355, -9.17133617401123, -2.1267731189727783, 3.5081570148468018, 0.36423665285110474, -1.5665225982666016, 9.715249061584473, -0.609285831451416, -0.06511138379573822, 0.5485928654670715, 
95, 404649688, -9.165749549865723, -2.1214940547943115, 3.5112383365631104, 0.39484378695487976, -1.5405004024505615, 9.710678100585938, -0.24077382683753967, 0.05352094769477844, 0.7410326600074768, 
96, 404658021, -9.15743350982666, -2.1162736415863037, 3.515002727508545, 0.4455648958683014, -1.5242421627044678, 9.710921287536621, 0.10907821357250214, 0.011590440757572651, 0.8249192237854004, 
97, 404666354, -9.149358749389648, -2.112025499343872, 3.5189733505249023, 0.41346293687820435, -1.4747231006622314, 9.647854804992676, 0.06249873340129852, -0.08684505522251129, 0.8344348073005676, 
98, 404674687, -9.14428424835205, -2.1090188026428223, 3.521160125732422, 0.4347354769706726, -1.4760034084320068, 9.64130973815918, -0.28597015142440796, -0.2199622541666031, 0.5969653725624084, 
99, 404683020, -9.140792846679688, -2.1083405017852783, 3.5219650268554688, 0.4113031029701233, -1.496052861213684, 9.594009399414062, -0.5025257468223572, -0.44952985644340515, 0.38558387756347656, 
100, 404691353, -9.138595581054688, -2.1086275577545166, 3.5218513011932373, 0.41472184658050537, -1.4894365072250366, 9.581798553466797, -0.6416365504264832, -0.5668429732322693, 0.262353777885437, 
101, 404699686, -9.136826515197754, -2.1108105182647705, 3.5215325355529785, 0.3675561249256134, -1.4682782888412476, 9.552815437316895, -0.7135613560676575, -0.7659168243408203, 0.200392946600914, 
102, 404708019, -9.135945320129395, -2.113844633102417, 3.5204875469207764, 0.37393632531166077, -1.4760534763336182, 9.51675033569336, -0.8044151067733765, -0.8747261762619019, 0.0997290313243866, 
103, 404716352, -9.138141632080078, -2.1165947914123535, 3.5198299884796143, 0.3569841980934143, -1.4334511756896973, 9.45492172241211, -1.190421462059021, -0.8270067572593689, 0.14949747920036316, 
104, 404724685, -9.142763137817383, -2.117145299911499, 3.5206308364868164, 0.35831475257873535, -1.4733140468597412, 9.428406715393066, -1.4572452306747437, -0.6160736083984375, 0.3647083342075348, 
105, 404733018, -9.147065162658691, -2.1166510581970215, 3.5215344429016113, 0.3332008719444275, -1.4997437000274658, 9.47093677520752, -1.437355637550354, -0.4741578698158264, 0.40137505531311035, 
106, 404741351, -9.150947570800781, -2.1162142753601074, 3.523468494415283, 0.32679909467697144, -1.5328255891799927, 9.58530330657959, -1.3622931241989136, -0.5199690461158752, 0.5173435211181641, 
107, 404749684, -9.152315139770508, -2.1133246421813965, 3.5277013778686523, 0.3610469102859497, -1.5156946182250977, 9.6881685256958, -1.068907618522644, -0.2518647611141205, 0.8386228084564209, 
108, 404758017, -9.152209281921387, -2.1089582443237305, 3.5329525470733643, 0.3949016034603119, -1.4658823013305664, 9.784688949584961, -0.8703717589378357, -0.11859390884637833, 0.9855717420578003, 
109, 404766350, -9.151203155517578, -2.1049673557281494, 3.5370023250579834, 0.3911818265914917, -1.4625275135040283, 9.807842254638672, -0.7854605317115784, -0.117415651679039, 0.8378031849861145, 
110, 404774683, -9.149660110473633, -2.101505756378174, 3.5399138927459717, 0.39922162890434265, -1.4903520345687866, 9.715277671813965, -0.7086049914360046, -0.18141281604766846, 0.6912769079208374, 
111, 404783016, -9.149271965026855, -2.1004245281219482, 3.5421509742736816, 0.40846309065818787, -1.5182266235351562, 9.72318172454834, -0.867387592792511, -0.42838525772094727, 0.5670991539955139, 
112, 404791349, -9.148553848266602, -2.0996806621551514, 3.5422799587249756, 0.3807746469974518, -1.566751480102539, 9.6591215133667, -0.8197708129882812, -0.45064404606819153, 0.3102652132511139, 
113, 404799682, -9.147446632385254, -2.101193428039551, 3.541804790496826, 0.37572452425956726, -1.5597560405731201, 9.610023498535156, -0.7935802936553955, -0.6829267144203186, 0.19199149310588837, 
114, 404808015, -9.14734172821045, -2.105311393737793, 3.5403528213500977, 0.3884708881378174, -1.6105698347091675, 9.591497421264648, -0.8991876840591431, -0.9952667951583862, 0.030135149136185646, 
115, 404816348, -9.145523071289062, -2.111473321914673, 3.53967547416687, 0.36225566267967224, -1.6220145225524902, 9.630708694458008, -0.7090147733688354, -1.230725646018982, 0.08411714434623718, 
116, 404824681, -9.138957023620605, -2.118262767791748, 3.539865255355835, 0.34847936034202576, -1.632550597190857, 9.675472259521484, -0.11732600629329681, -1.3439403772354126, 0.17394624650478363, 
117, 404833014, -9.128342628479004, -2.1248459815979004, 3.540562868118286, 0.37093213200569153, -1.6608829498291016, 9.71561336517334, 0.3524646461009979, -1.3069149255752563, 0.23364022374153137, 
118, 404841347, -9.112984657287598, -2.13008451461792, 3.5414369106292725, 0.3848658800125122, -1.6435730457305908, 9.717924118041992, 0.9418610334396362, -1.1715565919876099, 0.2841130793094635, 
119, 404849680, -9.092110633850098, -2.1349854469299316, 3.540663003921509, 0.4017254114151001, -1.6757383346557617, 9.802468299865723, 1.5766074657440186, -1.0801907777786255, 0.09953691810369492, 
120, 404858013, -9.068099975585938, -2.139277696609497, 3.540041923522949, 0.4033568501472473, -1.6325337886810303, 9.719305992126465, 1.9733591079711914, -1.031664490699768, 0.12649589776992798, 
121, 404866346, -9.041414260864258, -2.14489483833313, 3.5369935035705566, 0.3906017243862152, -1.5996917486190796, 9.61283016204834, 2.2648234367370605, -1.122595191001892, -0.1863947957754135, 
122, 404874679, -9.01731014251709, -2.150508403778076, 3.53265380859375, 0.3728140890598297, -1.6665408611297607, 9.556888580322266, 1.9679546356201172, -1.1186761856079102, -0.34015706181526184, 
123, 404883012, -8.990730285644531, -2.159806966781616, 3.5278027057647705, 0.4361620843410492, -1.5623500347137451, 9.540371894836426, 2.2447290420532227, -1.5248793363571167, -0.4674213230609894, 
124, 404891345, -8.962553977966309, -2.1703243255615234, 3.521618366241455, 0.34240949153900146, -1.696102261543274, 9.514130592346191, 2.447875738143921, -1.6661163568496704, -0.6484884023666382, 
125, 404899678, -8.932847023010254, -2.1818041801452637, 3.5161986351013184, 0.3913300335407257, -1.4747334718704224, 9.515787124633789, 2.6164560317993164, -1.7735552787780762, -0.5864635705947876, 
126, 404908011, -8.904504776000977, -2.190886974334717, 3.511401891708374, 0.36880484223365784, -1.4538159370422363, 9.353737831115723, 2.4734768867492676, -1.5227149724960327, -0.4559589922428131, 
127, 404916344, -8.878652572631836, -2.1993439197540283, 3.508091449737549, 0.3938930630683899, -1.275144100189209, 9.15823745727539, 2.1633782386779785, -1.4566175937652588, -0.26570925116539, 
128, 404924677, -8.854700088500977, -2.2068214416503906, 3.5043983459472656, 0.39227598905563354, -1.2787443399429321, 9.248517036437988, 1.9517022371292114, -1.3530335426330566, -0.2959340512752533, 
129, 404933010, -8.834400177001953, -2.213324785232544, 3.5028867721557617, 0.34392204880714417, -1.3602961301803589, 9.427362442016602, 1.5056686401367188, -1.257556438446045, -0.019261904060840607, 
130, 404941343, -8.815366744995117, -2.214291572570801, 3.5029137134552, 0.3894222378730774, -1.3520303964614868, 9.565668106079102, 1.3788014650344849, -0.6500636339187622, 0.26573485136032104, 
131, 404949676, -8.799086570739746, -2.211292028427124, 3.503786325454712, 0.4084777235984802, -1.264801263809204, 9.723408699035645, 1.0331885814666748, -0.1757136583328247, 0.44042399525642395, 
132, 404958009, -8.790616035461426, -2.2048134803771973, 3.5033953189849854, 0.4481898546218872, -1.2122858762741089, 9.809137344360352, 0.1096673384308815, 0.24094028770923615, 0.35418081283569336, 
133, 404966342, -8.789981842041016, -2.1980528831481934, 3.5034329891204834, 0.4600420296192169, -1.1722290515899658, 9.749981880187988, -0.8488813042640686, 0.28668728470802307, 0.40838053822517395, 
134, 404974675, -8.79415512084961, -2.193110704421997, 3.5029337406158447, 0.47438356280326843, -1.1813347339630127, 9.725282669067383, -1.408373236656189, 0.060846615582704544, 0.3106878697872162, 
135, 404983008, -8.801664352416992, -2.1926779747009277, 3.503751516342163, 0.4827563762664795, -1.250542163848877, 9.72049331665039, -1.8219660520553589, -0.477603018283844, 0.38409823179244995, 
136, 404991341, -8.81162166595459, -2.194779634475708, 3.5065412521362305, 0.46591895818710327, -1.2991749048233032, 9.613951683044434, -2.08707332611084, -0.8347166776657104, 0.5716968774795532, 
137, 404999674, -8.823899269104004, -2.20017671585083, 3.509519100189209, 0.46099230647087097, -1.342139720916748, 9.593852043151855, -2.3846981525421143, -1.2081595659255981, 0.5356704592704773, 
138, 405008007, -8.837182998657227, -2.205275058746338, 3.513284683227539, 0.4388667643070221, -1.3578442335128784, 9.58110523223877, -2.4822499752044678, -1.2089407444000244, 0.6330174207687378, 
139, 405016340, -8.850607872009277, -2.2097153663635254, 3.5189154148101807, 0.39362818002700806, -1.3768024444580078, 9.583816528320312, -2.510476589202881, -1.1442903280258179, 0.8645188212394714, 
140, 405024673, -8.86581802368164, -2.210719347000122, 3.524695873260498, 0.37153327465057373, -1.411711573600769, 9.532918930053711, -2.703813076019287, -0.7603585720062256, 0.9479443430900574, 
141, 405033006, -8.881914138793945, -2.2083263397216797, 3.5304908752441406, 0.3795006573200226, -1.4570436477661133, 9.524967193603516, -2.8301808834075928, -0.3386073708534241, 1.0138627290725708, 
142, 405041339, -8.898565292358398, -2.202054023742676, 3.535644054412842, 0.40605050325393677, -1.5301250219345093, 9.528555870056152, -2.8793346881866455, 0.11411142349243164, 1.0074591636657715, 
143, 405049672, -8.915258407592773, -2.1947076320648193, 3.540203809738159, 0.40704455971717834, -1.548888087272644, 9.51960277557373, -2.907881259918213, 0.27160051465034485, 0.9568324685096741, 
144, 405058005, -8.932395935058594, -2.1874005794525146, 3.542587995529175, 0.42554888129234314, -1.5727932453155518, 9.523052215576172, -2.951451539993286, 0.28699469566345215, 0.6985129714012146, 
145, 405066338, -8.95035457611084, -2.182924747467041, 3.5441455841064453, 0.39242929220199585, -1.6958805322647095, 9.588541030883789, -3.0736443996429443, -0.01256378274410963, 0.5530881881713867, 
146, 405074671, -8.964505195617676, -2.180161714553833, 3.5462589263916016, 0.38299861550331116, -1.5420806407928467, 9.644051551818848, -2.594350814819336, -0.24690842628479004, 0.581443190574646, 
147, 405083004, -8.972223281860352, -2.180574417114258, 3.5492823123931885, 0.42646723985671997, -1.7556735277175903, 9.7788724899292, -1.8372961282730103, -0.6192882061004639, 0.6333375573158264, 
148, 405091337, -8.973892211914062, -2.182811737060547, 3.5522327423095703, 0.41002267599105835, -1.5849483013153076, 9.770648002624512, -1.091845154762268, -0.8553489446640015, 0.5877441763877869, 
149, 405099670, -8.969117164611816, -2.1855838298797607, 3.554932117462158, 0.35880807042121887, -1.7555007934570312, 9.769932746887207, -0.34037476778030396, -0.8929250836372375, 0.5458393692970276, 
150, 405108003, -8.961681365966797, -2.187188148498535, 3.557269334793091, 0.39305585622787476, -1.6047191619873047, 9.677940368652344, -0.001895453198812902, -0.7688367962837219, 0.5285112857818604, 
151, 405116336, -8.951186180114746, -2.188911199569702, 3.557088851928711, 0.3778846859931946, -1.5714938640594482, 9.521864891052246, 0.3340224623680115, -0.7145859003067017, 0.22403490543365479, 
152, 405124669, -8.943816184997559, -2.188185930252075, 3.5551018714904785, 0.37538835406303406, -1.5646986961364746, 9.41382122039795, -0.030583396553993225, -0.41195371747016907, 0.05910484120249748, 
153, 405133002, -8.939169883728027, -2.1876580715179443, 3.551386594772339, 0.39864930510520935, -1.5093930959701538, 9.428728103637695, -0.38265106081962585, -0.3819338381290436, -0.15219977498054504, 
154, 405141335, -8.933194160461426, -2.185246706008911, 3.546067237854004, 0.36440184712409973, -1.5338551998138428, 9.44253921508789, -0.21270060539245605, -0.14961273968219757, -0.30529606342315674, 
155, 405149668, -8.927023887634277, -2.1849472522735596, 3.541590452194214, 0.3750234842300415, -1.5386124849319458, 9.538037300109863, -0.20481140911579132, -0.3959448039531708, -0.24062012135982513, 
156, 405158001, -8.916839599609375, -2.1847667694091797, 3.5389811992645264, 0.387555330991745, -1.5095646381378174, 9.615638732910156, 0.3050270974636078, -0.4653337895870209, -0.024051766842603683, 
157, 405166334, -8.905509948730469, -2.1856887340545654, 3.538024425506592, 0.3841148316860199, -1.434309482574463, 9.686272621154785, 0.4304856061935425, -0.6058534979820251, 0.1535189002752304, 
158, 405174667, -8.893275260925293, -2.1854453086853027, 3.5381250381469727, 0.41005101799964905, -1.3965067863464355, 9.75770092010498, 0.5622708201408386, -0.5083401203155518, 0.2968049645423889, 
159, 405183000, -8.881056785583496, -2.1859278678894043, 3.538043260574341, 0.4076905846595764, -1.3489189147949219, 9.740655899047852, 0.5430858135223389, -0.5684822797775269, 0.26440292596817017, 
160, 405191333, -8.870465278625488, -2.1860015392303467, 3.538604974746704, 0.4299001693725586, -1.3360365629196167, 9.720362663269043, 0.36760273575782776, -0.5546250939369202, 0.34552323818206787, 
161, 405199666, -8.863567352294922, -2.1870224475860596, 3.537876605987549, 0.42570143938064575, -1.3414226770401, 9.680929183959961, -0.0999339371919632, -0.6217983365058899, 0.17637963593006134, 
162, 405207999, -8.860640525817871, -2.1889355182647705, 3.5383846759796143, 0.411846399307251, -1.3364157676696777, 9.582528114318848, -0.5518714189529419, -0.7709500193595886, 0.3048349916934967, 
163, 405216332, -8.85901927947998, -2.192136526107788, 3.5382893085479736, 0.41516509652137756, -1.3303931951522827, 9.506219863891602, -0.7313632965087891, -0.8917852640151978, 0.2028007060289383, 
164, 405224665, -8.860803604125977, -2.1940479278564453, 3.5395894050598145, 0.3985564112663269, -1.3395415544509888, 9.466629981994629, -1.1135531663894653, -0.7851274609565735, 0.3980580270290375, 
165, 405232998, -8.864810943603516, -2.196725368499756, 3.540933847427368, 0.40613508224487305, -1.3490428924560547, 9.513667106628418, -1.3997409343719482, -0.8568217158317566, 0.38965654373168945, 
166, 405241331, -8.871028900146484, -2.198390007019043, 3.542581081390381, 0.4056151211261749, -1.3733282089233398, 9.557727813720703, -1.6438448429107666, -0.7625102400779724, 0.4452650845050812, 
167, 405249664, -8.877998352050781, -2.1989994049072266, 3.5453052520751953, 0.3992954194545746, -1.4210737943649292, 9.621562004089355, -1.7484532594680786, -0.6352329254150391, 0.5908819437026978, 
168, 405257997, -8.885512351989746, -2.1968495845794678, 3.5488815307617188, 0.3868670165538788, -1.4287513494491577, 9.67087459564209, -1.7912546396255493, -0.3464837670326233, 0.7439013719558716, 
169, 405266330, -8.893800735473633, -2.1935768127441406, 3.5522348880767822, 0.40785130858421326, -1.4312348365783691, 9.672045707702637, -1.904495120048523, -0.18808530271053314, 0.7360122203826904, 
170, 405274663, -8.902303695678711, -2.190592050552368, 3.5555522441864014, 0.4275265038013458, -1.4661070108413696, 9.652595520019531, -1.9103095531463623, -0.2421569675207138, 0.7288914322853088, 
171, 405282996, -8.910940170288086, -2.1887545585632324, 3.5582661628723145, 0.4284090995788574, -1.4742668867111206, 9.592241287231445, -1.9485387802124023, -0.34644532203674316, 0.6390751600265503, 
172, 405291329, -8.920870780944824, -2.188703775405884, 3.560871124267578, 0.420865535736084, -1.527581810951233, 9.608077049255371, -2.086394786834717, -0.5782029032707214, 0.5901519656181335, 
173, 405299662, -8.93021011352539, -2.189321279525757, 3.5631420612335205, 0.4319598078727722, -1.523115873336792, 9.595926284790039, -2.0350637435913086, -0.6293289661407471, 0.5391284227371216, 
174, 405307995, -8.936747550964355, -2.1915526390075684, 3.5654430389404297, 0.407245397567749, -1.565929889678955, 9.65143871307373, -1.6794228553771973, -0.8422472476959229, 0.5110679864883423, 
175, 405316328, -8.940573692321777, -2.1936440467834473, 3.5679571628570557, 0.39292994141578674, -1.569399118423462, 9.626739501953125, -1.3726156949996948, -0.8074118494987488, 0.5392436385154724, 
176, 405324661, -8.941839218139648, -2.1944468021392822, 3.570779323577881, 0.38470134139060974, -1.596493124961853, 9.601224899291992, -1.0449199676513672, -0.6833749413490295, 0.5992962121963501, 
177, 405332994, -8.941349029541016, -2.1940364837646484, 3.5722200870513916, 0.39888542890548706, -1.5892829895019531, 9.565718650817871, -0.8587556481361389, -0.49165239930152893, 0.4650263786315918, 
178, 405341327, -8.939324378967285, -2.1928606033325195, 3.573045015335083, 0.38453683257102966, -1.5573885440826416, 9.548959732055664, -0.659809947013855, -0.4117104411125183, 0.3994540274143219, 
179, 405349660, -8.936476707458496, -2.192155599594116, 3.574291467666626, 0.40072372555732727, -1.555700421333313, 9.55406665802002, -0.5765764117240906, -0.4534488022327423, 0.43957868218421936, 
180, 405357993, -8.933356285095215, -2.1903796195983887, 3.5749988555908203, 0.406767874956131, -1.5211235284805298, 9.537714958190918, -0.5275251269340515, -0.33767247200012207, 0.39716148376464844, 
181, 405366326, -8.927698135375977, -2.187927722930908, 3.574549674987793, 0.3938431143760681, -1.5367308855056763, 9.580739974975586, -0.24756160378456116, -0.21544134616851807, 0.27802973985671997, 
182, 405374659, -8.922669410705566, -2.1876060962677, 3.573852300643921, 0.39519456028938293, -1.5250219106674194, 9.591691017150879, -0.3052704632282257, -0.48341748118400574, 0.20426073670387268, 
183, 405382992, -8.915274620056152, -2.1883106231689453, 3.5715086460113525, 0.4137633442878723, -1.5083342790603638, 9.645272254943848, -0.04818037524819374, -0.5553421974182129, -0.004994776099920273, 
184, 405391325, -8.909100532531738, -2.1901676654815674, 3.5694284439086914, 0.42090904712677, -1.4709535837173462, 9.654706954956055, -0.1739206463098526, -0.7161996364593506, -0.0003842135483864695, 
185, 405399658, -8.902079582214355, -2.1909241676330566, 3.5676705837249756, 0.4066677391529083, -1.4795870780944824, 9.649535179138184, -0.08908630162477493, -0.5701472163200378, 0.060385555028915405, 
186, 405407991, -8.896327018737793, -2.191849946975708, 3.566166639328003, 0.401539146900177, -1.4349676370620728, 9.646130561828613, -0.22345857322216034, -0.6176872849464417, 0.08428363502025604, 
187, 405416324, -8.890426635742188, -2.1915533542633057, 3.564901828765869, 0.41054457426071167, -1.4230796098709106, 9.624550819396973, -0.22156314551830292, -0.45434531569480896, 0.1356145739555359, 
188, 405424657, -8.884968757629395, -2.1913561820983887, 3.5634615421295166, 0.4195714592933655, -1.3959274291992188, 9.570418357849121, -0.2564753293991089, -0.48416030406951904, 0.11361195147037506, 
189, 405432990, -8.880960464477539, -2.192643404006958, 3.5631420612335205, 0.4030698537826538, -1.3719725608825684, 9.538151741027832, -0.44595661759376526, -0.6598610877990723, 0.20931954681873322, 
190, 405441323, -8.877703666687012, -2.1932260990142822, 3.5641467571258545, 0.39422178268432617, -1.3801696300506592, 9.563129425048828, -0.5098129510879517, -0.6226180791854858, 0.38915711641311646, 
191, 405449656, -8.876728057861328, -2.193244695663452, 3.5650057792663574, 0.4109666049480438, -1.3761354684829712, 9.580482482910156, -0.8031087517738342, -0.5320589542388916, 0.38340672850608826, 
192, 405457989, -8.876712799072266, -2.1929209232330322, 3.5665152072906494, 0.4254007041454315, -1.3730310201644897, 9.605873107910156, -0.8965238928794861, -0.5243234038352966, 0.4654747247695923, 
193, 405466322, -8.877386093139648, -2.193115472793579, 3.567538022994995, 0.40420717000961304, -1.3816074132919312, 9.615859985351562, -1.000491976737976, -0.5563923716545105, 0.401515930891037, 
194, 405474655, -8.880964279174805, -2.1926724910736084, 3.5698459148406982, 0.41879895329475403, -1.4037525653839111, 9.641738891601562, -1.3248578310012817, -0.525437593460083, 0.5622836351394653, 
195, 405482988, -8.885275840759277, -2.1913983821868896, 3.570941925048828, 0.43064382672309875, -1.3935238122940063, 9.64649486541748, -1.4381240606307983, -0.38476425409317017, 0.43567249178886414, 
196, 405491321, -8.890686988830566, -2.1894309520721436, 3.572314977645874, 0.40987908840179443, -1.4383578300476074, 9.614871978759766, -1.5488542318344116, -0.3270553648471832, 0.479472815990448, 
197, 405499654, -8.89695930480957, -2.188965082168579, 3.573697328567505, 0.3911077380180359, -1.4493895769119263, 9.616324424743652, -1.6712777614593506, -0.48521050810813904, 0.4617094397544861, 
198, 405507987, -8.902742385864258, -2.188857316970825, 3.5762319564819336, 0.40921902656555176, -1.4725297689437866, 9.590716361999512, -1.5876216888427734, -0.5684823393821716, 0.5827879309654236, 
199, 405516320, -8.908594131469727, -2.188892364501953, 3.5777974128723145, 0.4106808304786682, -1.4767009019851685, 9.583781242370605, -1.6206765174865723, -0.5477219223976135, 0.4666401445865631, 
200, 405524653, -8.914730072021484, -2.1895058155059814, 3.5792980194091797, 0.4010297656059265, -1.4972989559173584, 9.580230712890625, -1.6344058513641357, -0.6349896788597107, 0.4460206627845764, 
201, 405532986, -8.919546127319336, -2.190119743347168, 3.5811400413513184, 0.4014286398887634, -1.5136348009109497, 9.581682205200195, -1.4957815408706665, -0.6214653849601746, 0.48623499274253845, 
202, 405541319, -8.923623085021973, -2.18996262550354, 3.5826258659362793, 0.4056377112865448, -1.5144213438034058, 9.603936195373535, -1.386703372001648, -0.5428680181503296, 0.45861005783081055, 
203, 405549652, -8.925966262817383, -2.1881959438323975, 3.583536148071289, 0.39829155802726746, -1.527711272239685, 9.5961332321167, -1.2019479274749756, -0.32204777002334595, 0.4228525757789612, 
204, 405557985, -8.92845630645752, -2.1886463165283203, 3.5846221446990967, 0.4008167088031769, -1.5441843271255493, 9.581355094909668, -1.2005391120910645, -0.6095419526100159, 0.4002351760864258, 
205, 405566318, -8.928563117980957, -2.188771963119507, 3.585653066635132, 0.40323406457901, -1.5440268516540527, 9.600702285766602, -0.9330881834030151, -0.5474658012390137, 0.4006834626197815, 
206, 405574651, -8.928268432617188, -2.1887922286987305, 3.5872461795806885, 0.39540234208106995, -1.5571167469024658, 9.620196342468262, -0.8625209927558899, -0.5667790174484253, 0.46868929266929626, 
207, 405582984, -8.926613807678223, -2.18869686126709, 3.5889878273010254, 0.3957885205745697, -1.5245997905731201, 9.622112274169922, -0.7182999849319458, -0.5356448292732239, 0.49316367506980896, 
208, 405591317, -8.92394733428955, -2.190467357635498, 3.588843584060669, 0.39954349398612976, -1.5313307046890259, 9.596254348754883, -0.5858744978904724, -0.7414809465408325, 0.23046408593654633, 
209, 405599650, -8.920964241027832, -2.1913602352142334, 3.5888588428497314, 0.41216111183166504, -1.5170106887817383, 9.58445930480957, -0.5672528147697449, -0.6208890080451965, 0.2648639976978302, 
210, 405607983, -8.917219161987305, -2.1907334327697754, 3.5881729125976562, 0.4112168252468109, -1.4964536428451538, 9.563665390014648, -0.4592888057231903, -0.4475575089454651, 0.20987021923065186, 
211, 405616316, -8.913372039794922, -2.191812038421631, 3.5877883434295654, 0.40837010741233826, -1.4953233003616333, 9.595917701721191, -0.4647190272808075, -0.6354635953903198, 0.21153517067432404, 
212, 405624649, -8.909687995910645, -2.192883253097534, 3.58660888671875, 0.4149723947048187, -1.4754739999771118, 9.585003852844238, -0.46866369247436523, -0.6395362615585327, 0.12185972929000854, 
213, 405632982, -8.905326843261719, -2.1929476261138916, 3.586561441421509, 0.422067791223526, -1.4676132202148438, 9.601625442504883, -0.40170806646347046, -0.521403431892395, 0.2712419331073761, 
214, 405641315, -8.900535583496094, -2.19248628616333, 3.5856146812438965, 0.41283321380615234, -1.4573276042938232, 9.602869033813477, -0.33557209372520447, -0.4628235995769501, 0.17554715275764465, 
215, 405649648, -8.896002769470215, -2.1924993991851807, 3.5855159759521484, 0.3990142047405243, -1.449158787727356, 9.579130172729492, -0.3811142146587372, -0.513027548789978, 0.26220014691352844, 
216, 405657981, -8.89139175415039, -2.191232919692993, 3.5850186347961426, 0.4097076952457428, -1.414696455001831, 9.596904754638672, -0.353681355714798, -0.3750436305999756, 0.24532033503055573, 
217, 405666314, -8.888134002685547, -2.190976142883301, 3.5863564014434814, 0.39849919080734253, -1.407142996788025, 9.607462882995605, -0.5274226665496826, -0.5086218118667603, 0.4454699456691742, 
218, 405674647, -8.886310577392578, -2.190060615539551, 3.5859122276306152, 0.4009314477443695, -1.4130942821502686, 9.62488842010498, -0.6894199252128601, -0.41852375864982605, 0.24374504387378693, 
219, 405682980, -8.885137557983398, -2.189095973968506, 3.5859932899475098, 0.39150387048721313, -1.415847897529602, 9.610710144042969, -0.783039927482605, -0.4011060893535614, 0.30959925055503845, 
220, 405691313, -8.886185646057129, -2.188946485519409, 3.5867111682891846, 0.4023834764957428, -1.4165347814559937, 9.6162691116333, -1.0287188291549683, -0.5304964184761047, 0.3668086528778076, 
221, 405699646, -8.887975692749023, -2.190521240234375, 3.588029384613037, 0.39841336011886597, -1.3988027572631836, 9.609014511108398, -1.1344799995422363, -0.7260355353355408, 0.40891844034194946, 
222, 405707979, -8.890237808227539, -2.1905362606048584, 3.589002847671509, 0.39776960015296936, -1.3940318822860718, 9.612876892089844, -1.17192804813385, -0.5539334416389465, 0.3951379358768463, 
223, 405716312, -8.893765449523926, -2.1913881301879883, 3.5900626182556152, 0.3836212754249573, -1.4179366827011108, 9.564409255981445, -1.3433384895324707, -0.6340291500091553, 0.38507160544395447, 
224, 405724645, -8.89723014831543, -2.1919443607330322, 3.5919880867004395, 0.3974832594394684, -1.433565616607666, 9.598213195800781, -1.3124605417251587, -0.6365265250205994, 0.49940070509910583, 
225, 405732978, -8.900541305541992, -2.193126678466797, 3.5932092666625977, 0.42048725485801697, -1.4491732120513916, 9.581391334533691, -1.3172119855880737, -0.6780087947845459, 0.4055629372596741, 
226, 405741311, -8.903643608093262, -2.1918206214904785, 3.5946764945983887, 0.4126119911670685, -1.4478713274002075, 9.595518112182617, -1.271849274635315, -0.40772736072540283, 0.47794878482818604, 
227, 405749644, -8.906283378601074, -2.191315174102783, 3.5959432125091553, 0.39224758744239807, -1.4693512916564941, 9.595746040344238, -1.2353233098983765, -0.47734686732292175, 0.4419095516204834, 
228, 405757977, -8.908690452575684, -2.19208025932312, 3.597625970840454, 0.4015105366706848, -1.4725056886672974, 9.581533432006836, -1.1865795850753784, -0.6564160585403442, 0.4651673138141632, 
229, 405766310, -8.912076950073242, -2.192711353302002, 3.5992579460144043, 0.4062528610229492, -1.4798660278320312, 9.619636535644531, -1.3242430686950684, -0.6191856265068054, 0.4642067551612854, 
230, 405774643, -8.914639472961426, -2.1932122707366943, 3.600872039794922, 0.4175112247467041, -1.505401611328125, 9.615965843200684, -1.205610752105713, -0.624090850353241, 0.4611715078353882, 
231, 405782976, -8.916801452636719, -2.1942434310913086, 3.6018576622009277, 0.38875702023506165, -1.5172538757324219, 9.583815574645996, -1.180201530456543, -0.6537264585494995, 0.377848356962204, 
232, 405791309, -8.918266296386719, -2.1950881481170654, 3.6027023792266846, 0.39251941442489624, -1.5247429609298706, 9.596761703491211, -1.0780775547027588, -0.6517541408538818, 0.36568161845207214, 
233, 405799642, -8.919343948364258, -2.1951136589050293, 3.603426456451416, 0.4098722040653229, -1.505852222442627, 9.593199729919434, -1.0516307353973389, -0.5300737619400024, 0.36787158250808716, 
234, 405807975, -8.919468879699707, -2.1948773860931396, 3.602952241897583, 0.42290449142456055, -1.5182695388793945, 9.604628562927246, -0.9231753945350647, -0.49856826663017273, 0.22914493083953857, 
235, 405816308, -8.918181419372559, -2.1959102153778076, 3.6042237281799316, 0.4076545834541321, -1.4936426877975464, 9.599843978881836, -0.7650716304779053, -0.6602326035499573, 0.41007110476493835, 
236, 405824641, -8.9164457321167, -2.1960954666137695, 3.604574203491211, 0.40087392926216125, -1.4967395067214966, 9.637676239013672, -0.6948501467704773, -0.5623220801353455, 0.31848737597465515, 
237, 405832974, -8.913308143615723, -2.196316957473755, 3.604400157928467, 0.40339887142181396, -1.4921045303344727, 9.599808692932129, -0.5503090620040894, -0.5385521054267883, 0.2629813253879547, 
238, 405841307, -8.910244941711426, -2.1956350803375244, 3.6045453548431396, 0.4157518446445465, -1.478542685508728, 9.57806396484375, -0.5372841954231262, -0.4562663435935974, 0.3090229332447052, 
239, 405849640, -8.907487869262695, -2.195739269256592, 3.604243516921997, 0.4105302691459656, -1.478385329246521, 9.587220191955566, -0.5949674248695374, -0.5203531384468079, 0.24055609107017517, 
240, 405857973, -8.904317855834961, -2.195051431655884, 3.6042404174804688, 0.39258354902267456, -1.4670913219451904, 9.621882438659668, -0.5257065296173096, -0.45326951146125793, 0.2941410541534424, 
241, 405866306, -8.900676727294922, -2.1947433948516846, 3.6036274433135986, 0.3936781585216522, -1.4537795782089233, 9.60047435760498, -0.4893086850643158, -0.46571800112724304, 0.21693971753120422, 
242, 405874639, -8.89793872833252, -2.1942849159240723, 3.6027023792266846, 0.418641597032547, -1.4329218864440918, 9.61914348602295, -0.5820578336715698, -0.4634382724761963, 0.17931245267391205, 
243, 405882972, -8.895587921142578, -2.194730281829834, 3.603151559829712, 0.4144643247127533, -1.4478641748428345, 9.627511978149414, -0.6405991911888123, -0.5748730897903442, 0.32425057888031006, 
244, 405891305, -8.893743515014648, -2.1950931549072266, 3.6044974327087402, 0.4258590638637543, -1.4427211284637451, 9.626883506774902, -0.6789436936378479, -0.6033816933631897, 0.4321633577346802, 
245, 405899638, -8.891683578491211, -2.194950580596924, 3.6052448749542236, 0.4116820991039276, -1.4086450338363647, 9.611053466796875, -0.6741538643836975, -0.5107350945472717, 0.3746594190597534, 
246, 405907971, -8.891213417053223, -2.1950087547302246, 3.606081247329712, 0.3830704987049103, -1.3979015350341797, 9.58935832977295, -0.8449880480766296, -0.5572377443313599, 0.3789241909980774, 
247, 405916304, -8.891181945800781, -2.1946141719818115, 3.6066503524780273, 0.414972186088562, -1.4185088872909546, 9.598228454589844, -0.9199608564376831, -0.477603018283844, 0.34854570031166077, 
248, 405924637, -8.891608238220215, -2.193985939025879, 3.607717990875244, 0.39602431654930115, -1.4299105405807495, 9.579645156860352, -0.9518505930900574, -0.48039495944976807, 0.4183956980705261, 
249, 405932970, -8.89234447479248, -2.1944451332092285, 3.608826160430908, 0.38035959005355835, -1.4496309757232666, 9.594938278198242, -1.008483648300171, -0.5892298817634583, 0.40448716282844543, 
250, 405941303, -8.893682479858398, -2.1941497325897217, 3.6098501682281494, 0.40283381938934326, -1.440253496170044, 9.585495948791504, -1.0610312223434448, -0.5184193253517151, 0.40839335322380066, 
251, 405949636, -8.896026611328125, -2.1941261291503906, 3.6113314628601074, 0.39807000756263733, -1.4441947937011719, 9.624665260314941, -1.2007569074630737, -0.5393717288970947, 0.45567718148231506, 
252, 405957969, -8.898792266845703, -2.1949751377105713, 3.612473964691162, 0.385287880897522, -1.4771264791488647, 9.600345611572266, -1.2317885160446167, -0.6562367081642151, 0.4003888964653015, 
253, 405966302, -8.901283264160156, -2.1955316066741943, 3.6146233081817627, 0.40605974197387695, -1.470102310180664, 9.61014461517334, -1.2151392698287964, -0.6209914684295654, 0.5286905169487, 
254, 405974635, -8.904130935668945, -2.19602632522583, 3.6156110763549805, 0.40201839804649353, -1.4673699140548706, 9.645358085632324, -1.242700219154358, -0.611309289932251, 0.38683897256851196, 
255, 405982968, -8.905989646911621, -2.1964025497436523, 3.616814374923706, 0.40175357460975647, -1.468235731124878, 9.610437393188477, -1.143983006477356, -0.5804441571235657, 0.42157188057899475, 
256, 405991301, -8.908088684082031, -2.197343587875366, 3.6178667545318604, 0.407976895570755, -1.4783565998077393, 9.625946044921875, -1.1521283388137817, -0.6655091047286987, 0.3875049650669098, 
257, 405999634, -8.909688949584961, -2.198059558868408, 3.6192736625671387, 0.391882985830307, -1.4757171869277954, 9.616890907287598, -1.1098648309707642, -0.6249617338180542, 0.43402040004730225, 
258, 406007967, -8.910592079162598, -2.19810152053833, 3.6199944019317627, 0.3908313512802124, -1.4942646026611328, 9.590453147888184, -1.0106865167617798, -0.5530881285667419, 0.3652461767196655, 
259, 406016300, -8.910368919372559, -2.197826862335205, 3.6208386421203613, 0.40808430314064026, -1.4985134601593018, 9.587786674499512, -0.8954736590385437, -0.49847862124443054, 0.3865315914154053, 
260, 406024633, -8.910686492919922, -2.1972784996032715, 3.62082839012146, 0.3933350741863251, -1.504550576210022, 9.583537101745605, -0.9434491395950317, -0.4690222144126892, 0.2896841764450073, 
261, 406032966, -8.911432266235352, -2.1979122161865234, 3.6214044094085693, 0.39478686451911926, -1.492462158203125, 9.583250045776367, -1.011775016784668, -0.5996419787406921, 0.33964473009109497, 
262, 406041299, -8.910888671875, -2.197526454925537, 3.6218631267547607, 0.3975834250450134, -1.48744797706604, 9.605966567993164, -0.8384948372840881, -0.49767181277275085, 0.34215497970581055, 
263, 406049632, -8.909258842468262, -2.197232961654663, 3.622684955596924, 0.4101010859012604, -1.493070125579834, 9.627254486083984, -0.7259714603424072, -0.49472612142562866, 0.3855198621749878, 
264, 406057965, -8.907464027404785, -2.1970043182373047, 3.6229283809661865, 0.43259716033935547, -1.469794750213623, 9.623879432678223, -0.6893174648284912, -0.512451171875, 0.3132877051830292, 
265, 406066298, -8.905301094055176, -2.1975202560424805, 3.6238632202148438, 0.4115745723247528, -1.4849086999893188, 9.61235523223877, -0.6604759097099304, -0.5917272567749023, 0.383470743894577, 
266, 406074631, -8.902833938598633, -2.196939468383789, 3.623725652694702, 0.4124475419521332, -1.472377061843872, 9.618157386779785, -0.6106433868408203, -0.4635152220726013, 0.27503281831741333, 
267, 406082964, -8.900986671447754, -2.196685552597046, 3.623660087585449, 0.4318811893463135, -1.4621555805206299, 9.632925033569336, -0.7037383317947388, -0.4834558367729187, 0.2778119742870331, 
268, 406091297, -8.899462699890137, -2.1972737312316895, 3.624290943145752, 0.3764040470123291, -1.4129582643508911, 9.603249549865723, -0.7196319103240967, -0.6159455180168152, 0.3445754647254944, 
269, 406099630, -8.897286415100098, -2.196937084197998, 3.624741792678833, 0.39625319838523865, -1.4594732522964478, 9.577470779418945, -0.6623585224151611, -0.48239290714263916, 0.3421165347099304, 
270, 406107963, -8.895191192626953, -2.197385549545288, 3.625077247619629, 0.4179118275642395, -1.4534435272216797, 9.612004280090332, -0.6535856127738953, -0.5947241187095642, 0.3116483688354492, 
271, 406116296, -8.893597602844238, -2.197977066040039, 3.626215696334839, 0.4030340909957886, -1.4416269063949585, 9.613162994384766, -0.7277771830558777, -0.6045471429824829, 0.4023611843585968, 
272, 406124629, -8.892389297485352, -2.198251962661743, 3.6263787746429443, 0.407268762588501, -1.435389518737793, 9.614416122436523, -0.7598462104797363, -0.5707619786262512, 0.2952040731906891, 
273, 406132962, -8.891724586486816, -2.197829008102417, 3.626244306564331, 0.42022937536239624, -1.4139312505722046, 9.559852600097656, -0.8466528654098511, -0.461875855922699, 0.2764672338962555, 
274, 406141295, -8.891145706176758, -2.1968345642089844, 3.6263980865478516, 0.40674641728401184, -1.4341020584106445, 9.595974922180176, -0.8351008296012878, -0.41948428750038147, 0.31693771481513977, 
275, 406149628, -8.891846656799316, -2.197158098220825, 3.627094268798828, 0.40408554673194885, -1.4388015270233154, 9.607111930847168, -1.0059736967086792, -0.5643841624259949, 0.3561275601387024, 
276, 406157961, -8.892643928527832, -2.1978182792663574, 3.628148317337036, 0.3877416253089905, -1.4291166067123413, 9.619738578796387, -0.9967394471168518, -0.6329149007797241, 0.3932553231716156, 
277, 406166294, -8.894027709960938, -2.1984119415283203, 3.6292834281921387, 0.39815548062324524, -1.447892665863037, 9.614128112792969, -1.0861587524414062, -0.6053540110588074, 0.40401333570480347, 
278, 406174627, -8.89484691619873, -2.199251651763916, 3.6302566528320312, 0.39747631549835205, -1.4491015672683716, 9.606461524963379, -0.9994802474975586, -0.6523305177688599, 0.3800896406173706, 
279, 406182960, -8.89646053314209, -2.199673652648926, 3.6312508583068848, 0.3987995982170105, -1.4588080644607544, 9.595788955688477, -1.114244818687439, -0.5825701951980591, 0.3913727104663849, 
280, 406191293, -8.899479866027832, -2.200451612472534, 3.632335662841797, 0.40512987971305847, -1.4749805927276611, 9.599651336669922, -1.263588547706604, -0.6474893689155579, 0.39550936222076416, 
281, 406199626, -8.901363372802734, -2.20100736618042, 3.633955240249634, 0.39499449729919434, -1.465088129043579, 9.585711479187012, -1.1447898149490356, -0.6097596287727356, 0.4622344374656677, 
282, 406207959, -8.902660369873047, -2.201551675796509, 3.6354856491088867, 0.39020904898643494, -1.479837417602539, 9.590446472167969, -1.0551142692565918, -0.6283299922943115, 0.4516301453113556, 
283, 406216292, -8.904976844787598, -2.20141863822937, 3.636519432067871, 0.4102940857410431, -1.473800539970398, 9.635229110717773, -1.1982210874557495, -0.5167287588119507, 0.40378275513648987, 
284, 406224625, -8.905814170837402, -2.2014949321746826, 3.638359308242798, 0.4228331446647644, -1.479537010192871, 9.617462158203125, -0.9985196590423584, -0.5783693790435791, 0.49700576066970825, 
285, 406232958, -8.906769752502441, -2.202944040298462, 3.6394894123077393, 0.40336310863494873, -1.4781564474105835, 9.600910186767578, -1.0350713729858398, -0.7068504691123962, 0.388350248336792, 
286, 406241291, -8.907753944396973, -2.2030978202819824, 3.6411056518554688, 0.41006532311439514, -1.483249306678772, 9.600245475769043, -1.0153995752334595, -0.581648051738739, 0.46872764825820923, 
287, 406249624, -8.908289909362793, -2.202965497970581, 3.642293930053711, 0.40053775906562805, -1.497275948524475, 9.590560913085938, -0.9845600128173828, -0.5220181345939636, 0.4285646080970764, 
288, 406257957, -8.909015655517578, -2.2019925117492676, 3.642960786819458, 0.4140494763851166, -1.4947582483291626, 9.590682029724121, -0.989759624004364, -0.4315742254257202, 0.3766957223415375, 
289, 406266290, -8.90834903717041, -2.2020552158355713, 3.6430540084838867, 0.41741129755973816, -1.4941072463989258, 9.596325874328613, -0.8446294665336609, -0.5222486853599548, 0.29191264510154724, 
290, 406274623, -8.907421112060547, -2.2022361755371094, 3.643887519836426, 0.4271034002304077, -1.495888352394104, 9.623306274414062, -0.7903271913528442, -0.5717352628707886, 0.37679818272590637, 
291, 406282956, -8.905841827392578, -2.2019057273864746, 3.645739793777466, 0.402790904045105, -1.5048723220825195, 9.616317749023438, -0.7271880507469177, -0.5089291930198669, 0.505945086479187, 
292, 406291289, -8.904559135437012, -2.2019124031066895, 3.6453206539154053, 0.40467923879623413, -1.472291111946106, 9.606575965881348, -0.753878116607666, -0.5280118584632874, 0.23125812411308289, 
293, 406299622, -8.902908325195312, -2.2019455432891846, 3.6455845832824707, 0.4012959599494934, -1.4683356285095215, 9.577499389648438, -0.72562575340271, -0.5216851830482483, 0.3071275055408478, 
294, 406307955, -8.902008056640625, -2.2011213302612305, 3.645991325378418, 0.404350221157074, -1.484014630317688, 9.593843460083008, -0.796244204044342, -0.44471436738967896, 0.34342288970947266, 
295, 406316288, -8.899897575378418, -2.2004854679107666, 3.645753860473633, 0.3945797383785248, -1.492455005645752, 9.58580493927002, -0.6738464832305908, -0.43338003754615784, 0.2668491005897522, 
296, 406324621, -8.898241996765137, -2.2002828121185303, 3.6465086936950684, 0.3996078670024872, -1.4572343826293945, 9.574223518371582, -0.7037510275840759, -0.5249124765396118, 0.3727511465549469, 
297, 406332954, -8.897310256958008, -2.2005839347839355, 3.64725399017334, 0.38962942361831665, -1.463057041168213, 9.613978385925293, -0.8095890879631042, -0.5648706555366516, 0.3714960515499115, 
298, 406341287, -8.896081924438477, -2.199930429458618, 3.6478030681610107, 0.4108807444572449, -1.4433435201644897, 9.621589660644531, -0.7558631896972656, -0.4675237834453583, 0.3583943545818329, 
299, 406349620, -8.89427661895752, -2.2008485794067383, 3.648427963256836, 0.38045257329940796, -1.436383843421936, 9.618821144104004, -0.7056722640991211, -0.6348488330841064, 0.3410663604736328, 
300, 406357953, -8.893268585205078, -2.201145648956299, 3.6479320526123047, 0.3969970941543579, -1.4636075496673584, 9.573966026306152, -0.7882652878761292, -0.5617329478263855, 0.21664518117904663, 
301, 406366286, -8.892760276794434, -2.2017288208007812, 3.6481990814208984, 0.3967324197292328, -1.4372349977493286, 9.6273832321167, -0.8626745939254761, -0.5886791348457336, 0.3050142526626587, 
302, 406374619, -8.892416000366211, -2.2020702362060547, 3.6482298374176025, 0.3827414810657501, -1.4387156963348389, 9.608771324157715, -0.8636864423751831, -0.5752958059310913, 0.2776198983192444, 
303, 406382952, -8.893037796020508, -2.202651023864746, 3.6495344638824463, 0.39461520314216614, -1.4211483001708984, 9.56694221496582, -0.9942549467086792, -0.6077617406845093, 0.43088266253471375, 
304, 406391285, -8.894610404968262, -2.202589511871338, 3.6507484912872314, 0.4071684181690216, -1.4366270303726196, 9.61263370513916, -1.088412880897522, -0.5493356585502625, 0.4257085621356964, 
305, 406399618, -8.895663261413574, -2.202908754348755, 3.65132737159729, 0.4101085364818573, -1.448779821395874, 9.591019630432129, -1.0501195192337036, -0.5638845562934875, 0.343025803565979, 
306, 406407951, -8.896905899047852, -2.2029616832733154, 3.6522955894470215, 0.4201723039150238, -1.4518768787384033, 9.590195655822754, -1.0505039691925049, -0.558864176273346, 0.39330658316612244, 
307, 406416284, -8.898201942443848, -2.203031539916992, 3.6534409523010254, 0.40336310863494873, -1.4555104970932007, 9.614601135253906, -1.0751702785491943, -0.5435724258422852, 0.4193049967288971, 
308, 406424617, -8.898980140686035, -2.203502893447876, 3.6538734436035156, 0.40052345395088196, -1.4625418186187744, 9.61340618133545, -0.9974952340126038, -0.599245011806488, 0.3229314684867859, 
309, 406432950, -8.900760650634766, -2.204296827316284, 3.655550241470337, 0.41251876950263977, -1.4756457805633545, 9.589509010314941, -1.1316368579864502, -0.6368979215621948, 0.45922479033470154, 
310, 406441283, -8.900801658630371, -2.203871488571167, 3.6566407680511475, 0.41097375750541687, -1.4621412754058838, 9.602219581604004, -0.9061035513877869, -0.5046260356903076, 0.4162953794002533, 
311, 406449616, -8.901637077331543, -2.2031641006469727, 3.657921075820923, 0.4206300973892212, -1.4630711078643799, 9.619722366333008, -1.0194976329803467, -0.45285964012145996, 0.445060133934021, 
312, 406457949, -8.902311325073242, -2.2039692401885986, 3.6590967178344727, 0.39515164494514465, -1.4780420064926147, 9.624865531921387, -0.9820881485939026, -0.6528427600860596, 0.4051147401332855, 
313, 406466282, -8.903803825378418, -2.203622579574585, 3.6602306365966797, 0.41082316637039185, -1.4943361282348633, 9.599178314208984, -1.0989660024642944, -0.49329179525375366, 0.4211236834526062, 
314, 406474615, -8.904289245605469, -2.2032485008239746, 3.6610019207000732, 0.4109165072441101, -1.482419490814209, 9.611010551452637, -0.9598934650421143, -0.5044979453086853, 0.3793339729309082, 
315, 406482948, -8.904393196105957, -2.203493595123291, 3.6618432998657227, 0.4079194664955139, -1.4822978973388672, 9.612011909484863, -0.9356111884117126, -0.5595173239707947, 0.36849915981292725, 
316, 406491281, -8.903899192810059, -2.2033584117889404, 3.662808418273926, 0.4125402271747589, -1.4853235483169556, 9.592784881591797, -0.8413251042366028, -0.5357729196548462, 0.3967260718345642, 
317, 406499614, -8.902952194213867, -2.2031443119049072, 3.663574457168579, 0.4073830246925354, -1.4769333600997925, 9.604637145996094, -0.8088974952697754, -0.503729522228241, 0.3770543336868286, 
318, 406507947, -8.902008056640625, -2.20295786857605, 3.664647102355957, 0.4162883162498474, -1.47915780544281, 9.608184814453125, -0.7865618467330933, -0.5313928723335266, 0.4094819724559784, 
319, 406516280, -8.900237083435059, -2.2030162811279297, 3.665362596511841, 0.4081481695175171, -1.4657392501831055, 9.61634635925293, -0.7101162672042847, -0.5353760123252869, 0.36454179883003235, 
320, 406524613, -8.898998260498047, -2.2027971744537354, 3.6655354499816895, 0.41741129755973816, -1.4680209159851074, 9.60216236114502, -0.7561834454536438, -0.5112857222557068, 0.3033877909183502, 
321, 406532946, -8.897175788879395, -2.202714681625366, 3.6664507389068604, 0.4218677282333374, -1.4813965559005737, 9.616904258728027, -0.7028546333312988, -0.5228889584541321, 0.3892723023891449, 
322, 406541279, -8.895868301391602, -2.2026143074035645, 3.6672446727752686, 0.3938426971435547, -1.4644372463226318, 9.601118087768555, -0.7451820969581604, -0.5371432900428772, 0.3760938048362732, 
323, 406549612, -8.895003318786621, -2.2030553817749023, 3.667471408843994, 0.4077838063240051, -1.4663541316986084, 9.591898918151855, -0.8201806545257568, -0.5700832605361938, 0.3009416460990906, 
324, 406557945, -8.89487361907959, -2.2028157711029053, 3.668332815170288, 0.42094480991363525, -1.4603244066238403, 9.581426620483398, -0.8861885666847229, -0.5224407315254211, 0.3880044221878052, 
325, 406566278, -8.894917488098145, -2.203131914138794, 3.669156789779663, 0.4131625294685364, -1.46588933467865, 9.61303424835205, -0.9279397130012512, -0.5672144293785095, 0.367743581533432, 
326, 406574611, -8.894737243652344, -2.2034857273101807, 3.6693027019500732, 0.42011508345603943, -1.4498956203460693, 9.612905502319336, -0.8828073740005493, -0.5787920355796814, 0.2906703054904938, 
327, 406582944, -8.89465618133545, -2.204042673110962, 3.669978618621826, 0.4244067966938019, -1.4431933164596558, 9.624178886413574, -0.913698136806488, -0.5937508344650269, 0.3528617024421692, 
328, 406591277, -8.894610404968262, -2.205561876296997, 3.67132568359375, 0.4091426134109497, -1.434323787689209, 9.603192329406738, -0.8943467140197754, -0.7398671507835388, 0.41227394342422485, 
329, 406599610, -8.894821166992188, -2.2052035331726074, 3.671452522277832, 0.4083128869533539, -1.4483147859573364, 9.570003509521484, -0.9500575661659241, -0.4731973707675934, 0.30069831013679504, 
330, 406607943, -8.894756317138672, -2.2050812244415283, 3.6730072498321533, 0.42517247796058655, -1.4565119743347168, 9.573888778686523, -0.8902482986450195, -0.5485544204711914, 0.4669346809387207, 
331, 406616276, -8.8949613571167, -2.205150604248047, 3.6738827228546143, 0.4170536696910858, -1.4591299295425415, 9.61432933807373, -0.9463435411453247, -0.5386929512023926, 0.3905273973941803, 
332, 406624609, -8.895914077758789, -2.2043416500091553, 3.6749768257141113, 0.3916539251804352, -1.4746801853179932, 9.60948657989502, -1.0151432752609253, -0.4587765634059906, 0.42505544424057007, 
333, 406632942, -8.896069526672363, -2.2044925689697266, 3.6755340099334717, 0.4031485319137573, -1.4626061916351318, 9.603242874145508, -0.942424476146698, -0.5431241989135742, 0.34339720010757446, 
334, 406641275, -8.897027969360352, -2.2058067321777344, 3.676054000854492, 0.43322622776031494, -1.4594231843948364, 9.60190486907959, -1.018101692199707, -0.6998705267906189, 0.31659194827079773, 
335, 406649608, -8.897287368774414, -2.206127166748047, 3.6775336265563965, 0.42535096406936646, -1.46133291721344, 9.566190719604492, -0.9503393173217773, -0.5798806548118591, 0.4530005156993866, 
336, 406657941, -8.897916793823242, -2.2055060863494873, 3.679295301437378, 0.4152940511703491, -1.4818115234375, 9.589766502380371, -0.973392128944397, -0.49358630180358887, 0.501565158367157, 
337, 406666274, -8.89869499206543, -2.2054035663604736, 3.6798250675201416, 0.40774035453796387, -1.4550813436508179, 9.615779876708984, -1.016219139099121, -0.5116186738014221, 0.34872499108314514, 
338, 406674607, -8.899983406066895, -2.20517897605896, 3.680422782897949, 0.3956308960914612, -1.472598671913147, 9.611331939697266, -1.0575348138809204, -0.5188931822776794, 0.3553590774536133, 
339, 406682940, -8.899537086486816, -2.2039682865142822, 3.681367874145508, 0.3946080505847931, -1.499006986618042, 9.574244499206543, -0.8674260377883911, -0.3877995014190674, 0.4255676865577698, 
340, 406691273, -8.900190353393555, -2.2036352157592773, 3.6828763484954834, 0.4085274636745453, -1.4817328453063965, 9.582763671875, -0.9770805835723877, -0.5229658484458923, 0.4643988609313965, 
341, 406699606, -8.90093994140625, -2.2035939693450928, 3.683105230331421, 0.3927697539329529, -1.465753436088562, 9.581741333007812, -1.014374852180481, -0.5141032934188843, 0.3139408826828003, 
342, 406707939, -8.901032447814941, -2.2035086154937744, 3.6837990283966064, 0.41996487975120544, -1.4883062839508057, 9.594544410705566, -0.9134547710418701, -0.537489116191864, 0.36486193537712097, 
343, 406716272, -8.901010513305664, -2.2031965255737305, 3.683659791946411, 0.41645997762680054, -1.4683713912963867, 9.599930763244629, -0.924238383769989, -0.4757075309753418, 0.2693721055984497, 
344, 406724605, -8.900074005126953, -2.203813076019287, 3.6847527027130127, 0.4091571867465973, -1.4708747863769531, 9.59714126586914, -0.7878425121307373, -0.6273694038391113, 0.39823731780052185, 
345, 406732938, -8.899310111999512, -2.204453945159912, 3.6851470470428467, 0.4216243326663971, -1.477927565574646, 9.616045951843262, -0.8318734765052795, -0.5967348217964172, 0.31084156036376953, 
346, 406741271, -8.899191856384277, -2.204455852508545, 3.686331272125244, 0.4128406345844269, -1.4801735877990723, 9.57641887664795, -0.8868672847747803, -0.5564436316490173, 0.4193434417247772, 
347, 406749604, -8.898147583007812, -2.2046258449554443, 3.6875858306884766, 0.40620994567871094, -1.4620769023895264, 9.593679428100586, -0.7942205667495728, -0.5578779578208923, 0.426118403673172, 
348, 406757937, -8.898263931274414, -2.204493522644043, 3.68778133392334, 0.40643906593322754, -1.4622557163238525, 9.638978958129883, -0.9188594818115234, -0.5223255157470703, 0.3064359128475189, 
349, 406766270, -8.897427558898926, -2.205087423324585, 3.6881906986236572, 0.4155086576938629, -1.4727274179458618, 9.583043098449707, -0.8231261968612671, -0.5917784571647644, 0.3165406882762909, 
350, 406774603, -8.896958351135254, -2.2054154872894287, 3.6891133785247803, 0.40003731846809387, -1.4645804166793823, 9.589317321777344, -0.8460637331008911, -0.5913814306259155, 0.3838421106338501, 
351, 406782936, -8.896011352539062, -2.2060818672180176, 3.689284563064575, 0.4076548218727112, -1.4474064111709595, 9.573765754699707, -0.8104343414306641, -0.5957614183425903, 0.29221999645233154, 
352, 406791269, -8.896146774291992, -2.205665111541748, 3.6904404163360596, 0.41557303071022034, -1.4723411798477173, 9.582148551940918, -0.9170152544975281, -0.507110595703125, 0.42533716559410095, 
353, 406799602, -8.895806312561035, -2.2057552337646484, 3.6914265155792236, 0.40194714069366455, -1.4591013193130493, 9.571986198425293, -0.8803357481956482, -0.543124258518219, 0.3995436728000641, 
354, 406807935, -8.896085739135742, -2.206218957901001, 3.692164182662964, 0.38962966203689575, -1.451984167098999, 9.575296401977539, -0.9351757168769836, -0.6022931337356567, 0.35943177342414856, 
355, 406816268, -8.89552116394043, -2.2061376571655273, 3.6933817863464355, 0.4009096920490265, -1.448250412940979, 9.601811408996582, -0.8531332612037659, -0.5266030430793762, 0.4275912046432495, 
356, 406824601, -8.895684242248535, -2.2066164016723633, 3.6948187351226807, 0.4087778329849243, -1.45419442653656, 9.59852123260498, -0.9186545610427856, -0.6177897453308105, 0.4425755739212036, 
357, 406832934, -8.896529197692871, -2.206678867340088, 3.6949479579925537, 0.41690346598625183, -1.4411977529525757, 9.650243759155273, -1.0261958837509155, -0.5230554938316345, 0.2973812520503998, 
358, 406841267, -8.896817207336426, -2.206538200378418, 3.6960229873657227, 0.41725394129753113, -1.4636576175689697, 9.564946174621582, -0.9365972876548767, -0.5386033058166504, 0.4107498526573181, 
359, 406849600, -8.896946907043457, -2.206857204437256, 3.6965911388397217, 0.39758363366127014, -1.4598451852798462, 9.596318244934082, -0.9378780722618103, -0.5616818070411682, 0.34479326009750366, 
360, 406857933, -8.898174285888672, -2.207543134689331, 3.6970951557159424, 0.40647462010383606, -1.469494342803955, 9.568115234375, -1.0507984161376953, -0.6258838176727295, 0.3287971317768097, 
361, 406866266, -8.898557662963867, -2.2082462310791016, 3.698500156402588, 0.41804108023643494, -1.4507752656936646, 9.601290702819824, -0.9654773473739624, -0.6230918765068054, 0.4348144233226776, 
362, 406874599, -8.89949893951416, -2.2088780403137207, 3.6989521980285645, 0.3937351107597351, -1.4692296981811523, 9.581561088562012, -1.0163215398788452, -0.6170212030410767, 0.320728600025177, 
363, 406882932, -8.900341033935547, -2.209852695465088, 3.700704574584961, 0.4016253650188446, -1.4461545944213867, 9.607134819030762, -1.0188318490982056, -0.6617950201034546, 0.47441405057907104, 
364, 406891265, -8.900811195373535, -2.2098233699798584, 3.7022480964660645, 0.40052345395088196, -1.4598594903945923, 9.621088981628418, -0.9555647373199463, -0.5601833462715149, 0.4635791778564453, 
365, 406899598, -8.901018142700195, -2.210411548614502, 3.703317880630493, 0.404807984828949, -1.4703240394592285, 9.607355117797852, -0.9455495476722717, -0.60316401720047, 0.39572715759277344, 
366, 406907931, -8.901971817016602, -2.2105789184570312, 3.704132556915283, 0.4090857207775116, -1.4644302129745483, 9.608636856079102, -1.015963077545166, -0.5695837736129761, 0.3751845061779022, 
367, 406916264, -8.901999473571777, -2.209953546524048, 3.7049577236175537, 0.41448578238487244, -1.4915752410888672, 9.622740745544434, -0.9258264899253845, -0.4553185999393463, 0.3871719241142273, 
368, 406924597, -8.902159690856934, -2.2091856002807617, 3.705707550048828, 0.392870157957077, -1.4666333198547363, 9.623993873596191, -0.9224710464477539, -0.45841798186302185, 0.38399577140808105, 
369, 406932930, -8.902243614196777, -2.2083306312561035, 3.7069144248962402, 0.421459823846817, -1.4617693424224854, 9.63523006439209, -0.9308469891548157, -0.4353395104408264, 0.44618719816207886, 
370, 406941263, -8.902752876281738, -2.207432746887207, 3.7077276706695557, 0.40316998958587646, -1.4833136796951294, 9.589537620544434, -0.9629415273666382, -0.4431775212287903, 0.39290955662727356, 
371, 406949596, -8.902122497558594, -2.2077183723449707, 3.708622932434082, 0.4150437116622925, -1.4825268983840942, 9.61890697479248, -0.8459357023239136, -0.5646401643753052, 0.3854302167892456, 
372, 406957929, -8.901503562927246, -2.208228588104248, 3.7089130878448486, 0.395438015460968, -1.4847869873046875, 9.591419219970703, -0.8293889164924622, -0.5995268225669861, 0.3051808178424835, 
373, 406966262, -8.90056324005127, -2.2075750827789307, 3.7096517086029053, 0.40298402309417725, -1.4459757804870605, 9.59262752532959, -0.8099733591079712, -0.45050323009490967, 0.3747234344482422, 
374, 406974595, -8.900594711303711, -2.207632541656494, 3.7108349800109863, 0.39622458815574646, -1.4767473936080933, 9.582649230957031, -0.90436190366745, -0.5633851289749146, 0.4188055992126465, 
375, 406982928, -8.900736808776855, -2.2075679302215576, 3.7114615440368652, 0.41150274872779846, -1.4896724224090576, 9.595115661621094, -0.9394277334213257, -0.5173819661140442, 0.35648611187934875, 
376, 406991261, -8.900466918945312, -2.2072150707244873, 3.712695360183716, 0.42013683915138245, -1.4818402528762817, 9.572464942932129, -0.8679639101028442, -0.5159218907356262, 0.43307265639305115, 
377, 406999594, -8.900382041931152, -2.2076075077056885, 3.7137701511383057, 0.3898513913154602, -1.4537938833236694, 9.606124877929688, -0.9096637964248657, -0.5805721879005432, 0.404897004365921, 
378, 407007927, -8.900899887084961, -2.206655979156494, 3.7146384716033936, 0.4041570723056793, -1.4714471101760864, 9.621238708496094, -0.96442711353302, -0.4382339417934418, 0.400926798582077, 
379, 407016260, -8.90156078338623, -2.2072391510009766, 3.7156691551208496, 0.41146761178970337, -1.4421920776367188, 9.609638214111328, -0.9999412894248962, -0.6023827195167542, 0.39550936222076416, 
380, 407024593, -8.901387214660645, -2.207392692565918, 3.7164766788482666, 0.41208958625793457, -1.4466123580932617, 9.588814735412598, -0.8819109797477722, -0.5687000751495361, 0.3731994032859802, 
381, 407032926, -8.900801658630371, -2.207820415496826, 3.7174811363220215, 0.3996790945529938, -1.4498955011367798, 9.606574058532715, -0.8510329127311707, -0.5833129286766052, 0.3948306441307068, 
382, 407041259, -8.901069641113281, -2.2086117267608643, 3.7183468341827393, 0.4133484959602356, -1.4635932445526123, 9.591633796691895, -0.9336133599281311, -0.6440443992614746, 0.36791008710861206, 
383, 407049592, -8.901111602783203, -2.2082300186157227, 3.718620538711548, 0.4055804908275604, -1.4661039113998413, 9.594895362854004, -0.9290026426315308, -0.4752720892429352, 0.3348933160305023, 
384, 407057925, -8.901446342468262, -2.2081103324890137, 3.719542980194092, 0.3981632888317108, -1.4657176733016968, 9.583230018615723, -0.9420403242111206, -0.5379757285118103, 0.3924485146999359, 
385, 407066258, -8.901277542114258, -2.208353042602539, 3.7203848361968994, 0.3863751292228699, -1.4690651893615723, 9.594952583312988, -0.9022743105888367, -0.5587617754936218, 0.3733018934726715, 
386, 407074591, -8.901508331298828, -2.2092597484588623, 3.72139573097229, 0.40619534254074097, -1.4666045904159546, 9.607403755187988, -0.9288617968559265, -0.660860002040863, 0.38367560505867004, 
387, 407082924, -8.901407241821289, -2.2089977264404297, 3.723008871078491, 0.42505767941474915, -1.4673198461532593, 9.57583999633789, -0.906436562538147, -0.5114393830299377, 0.4743371605873108, 
388, 407091257, -8.901860237121582, -2.2096288204193115, 3.7237701416015625, 0.41147443652153015, -1.4485937356948853, 9.614672660827637, -0.9567428231239319, -0.6235272884368896, 0.3581766188144684, 
389, 407099590, -8.90190315246582, -2.2094967365264893, 3.7253072261810303, 0.4096433222293854, -1.465910792350769, 9.586304664611816, -0.9238798022270203, -0.5269872546195984, 0.47136592864990234, 
390, 407107923, -8.90173625946045, -2.209512233734131, 3.726365566253662, 0.40443605184555054, -1.4844509363174438, 9.597570419311523, -0.8820005059242249, -0.5568278431892395, 0.40566542744636536, 
391, 407116256, -8.901388168334961, -2.2091262340545654, 3.7276923656463623, 0.3953447937965393, -1.4602242708206177, 9.61362075805664, -0.8772875070571899, -0.49192142486572266, 0.44959384202957153, 
392, 407124589, -8.901628494262695, -2.209087610244751, 3.7281136512756348, 0.4226328730583191, -1.4921331405639648, 9.595624923706055, -0.9335492253303528, -0.5382959246635437, 0.33021873235702515, 
393, 407132922, -8.901409149169922, -2.2096455097198486, 3.728792428970337, 0.40510815382003784, -1.475044846534729, 9.58571720123291, -0.8963445425033569, -0.5930207371711731, 0.3483920097351074, 
394, 407141255, -8.901738166809082, -2.2096164226531982, 3.7298007011413574, 0.3999151587486267, -1.4633071422576904, 9.616559982299805, -0.9403496980667114, -0.549399733543396, 0.4011317193508148, 
395, 407149588, -8.901054382324219, -2.2089927196502686, 3.7310245037078857, 0.4172467887401581, -1.4716616868972778, 9.584794998168945, -0.8387637138366699, -0.4637201130390167, 0.43706849217414856, 
396, 407157921, -8.90137767791748, -2.2080440521240234, 3.732088088989258, 0.40835580229759216, -1.4700736999511719, 9.575797080993652, -0.9400807619094849, -0.44196078181266785, 0.42273733019828796, 
397, 407166254, -8.901747703552246, -2.2083899974823, 3.733186721801758, 0.398835688829422, -1.4650453329086304, 9.62115478515625, -0.9646705389022827, -0.5747194290161133, 0.405601441860199, 
398, 407174587, -8.9021635055542, -2.2075998783111572, 3.7344226837158203, 0.4086705148220062, -1.4773839712142944, 9.6251802444458, -0.9502496719360352, -0.46322059631347656, 0.44051358103752136, 
399, 407182920, -8.902194023132324, -2.206526041030884, 3.734926462173462, 0.4021831750869751, -1.4838645458221436, 9.6347017288208, -0.9278372526168823, -0.39728960394859314, 0.36361968517303467, 
400, 407191253, -8.901839256286621, -2.206382989883423, 3.734699249267578, 0.40621688961982727, -1.4809316396713257, 9.597676277160645, -0.8642498850822449, -0.5132068395614624, 0.2560654878616333, 
401, 407199586, -8.901615142822266, -2.2066049575805664, 3.7352538108825684, 0.41691750288009644, -1.4727131128311157, 9.604178428649902, -0.8972665667533875, -0.5504499077796936, 0.3386073410511017, 
402, 407207919, -8.900752067565918, -2.2071056365966797, 3.7360877990722656, 0.3997366428375244, -1.4654244184494019, 9.583171844482422, -0.7979731559753418, -0.6087607145309448, 0.3697158992290497, 
403, 407216252, -8.900551795959473, -2.2079358100891113, 3.7365834712982178, 0.4020112454891205, -1.449001431465149, 9.606010437011719, -0.8992004990577698, -0.621977686882019, 0.32991132140159607, 
404, 407224585, -8.900602340698242, -2.2080025672912598, 3.7373831272125244, 0.4002230167388916, -1.4736788272857666, 9.61256217956543, -0.9086136817932129, -0.5576730966567993, 0.37405747175216675, 
405, 407232918, -8.900250434875488, -2.207768201828003, 3.737623929977417, 0.4242422580718994, -1.46696937084198, 9.582162857055664, -0.8829739689826965, -0.4910506010055542, 0.30876681208610535, 
406, 407241251, -8.900014877319336, -2.207899808883667, 3.737934112548828, 0.4040500223636627, -1.455160140991211, 9.594767570495605, -0.8766087293624878, -0.5557647943496704, 0.3143634796142578, 
407, 407249584, -8.900031089782715, -2.208272933959961, 3.7383627891540527, 0.3951733708381653, -1.4622986316680908, 9.600689888000488, -0.9254550933837891, -0.5669070482254028, 0.3331131041049957, 
408, 407257917, -8.900429725646973, -2.208298683166504, 3.738732099533081, 0.4118037521839142, -1.4537652730941772, 9.617799758911133, -0.951748251914978, -0.5438927412033081, 0.3241097331047058, 
409, 407266250, -8.900927543640137, -2.20739483833313, 3.7400121688842773, 0.39533016085624695, -1.4754884243011475, 9.608899116516113, -0.9802311658859253, -0.4302166700363159, 0.4442404806613922, 
410, 407274583, -8.901071548461914, -2.207987070083618, 3.7411186695098877, 0.40882790088653564, -1.4771407842636108, 9.580081939697266, -0.9189234375953674, -0.6259221434593201, 0.3997357189655304, 
411, 407282916, -8.901158332824707, -2.208073854446411, 3.7430756092071533, 0.4194713234901428, -1.4638149738311768, 9.606010437011719, -0.927734911441803, -0.5604010820388794, 0.5089804530143738, 
412, 407291249, -8.90113353729248, -2.2081120014190674, 3.7444779872894287, 0.40498682856559753, -1.4876840114593506, 9.615631103515625, -0.8962804675102234, -0.5644736886024475, 0.44604629278182983, 
413, 407299582, -8.901322364807129, -2.2085940837860107, 3.7453649044036865, 0.40682509541511536, -1.4639222621917725, 9.57407283782959, -0.9452548623085022, -0.5873472094535828, 0.3731994032859802, 
414, 407307915, -8.901226997375488, -2.2078254222869873, 3.7459793090820312, 0.421746164560318, -1.4810963869094849, 9.6107759475708, -0.8912344574928284, -0.45410192012786865, 0.3674105703830719, 
415, 407316248, -8.901084899902344, -2.2080135345458984, 3.7464377880096436, 0.42172446846961975, -1.4766114950180054, 9.628313064575195, -0.9068080186843872, -0.5460315346717834, 0.33554649353027344, 
416, 407324581, -8.900446891784668, -2.207113027572632, 3.747520685195923, 0.39096009731292725, -1.471389889717102, 9.613642692565918, -0.8239330649375916, -0.44773682951927185, 0.42628493905067444, 
417, 407332914, -8.899407386779785, -2.207732915878296, 3.7483041286468506, 0.42759695649147034, -1.4845582246780396, 9.621124267578125, -0.7981395125389099, -0.6010123491287231, 0.3602257966995239, 
418, 407341247, -8.899430274963379, -2.208517551422119, 3.74942684173584, 0.4117105007171631, -1.4764111042022705, 9.615859985351562, -0.9043106436729431, -0.6491415500640869, 0.39915943145751953, 
419, 407349580, -8.899622917175293, -2.2086124420166016, 3.749484062194824, 0.410902202129364, -1.4795441627502441, 9.597670555114746, -0.9491356015205383, -0.5260908007621765, 0.28415152430534363, 
420, 407357913, -8.900310516357422, -2.2078936100006104, 3.7503018379211426, 0.39586010575294495, -1.4860389232635498, 9.601255416870117, -0.9848160743713379, -0.4647446572780609, 0.3909372389316559, 
421, 407366246, -8.900290489196777, -2.208253860473633, 3.751007556915283, 0.41366320848464966, -1.479286551475525, 9.60571002960205, -0.9202938079833984, -0.5693275928497314, 0.3556664288043976, 
422, 407374579, -8.899837493896484, -2.2077934741973877, 3.7523722648620605, 0.42277592420578003, -1.4759533405303955, 9.62085247039795, -0.8452826142311096, -0.5050230622291565, 0.4500933587551117, 
423, 407382912, -8.899349212646484, -2.2074742317199707, 3.753598690032959, 0.4179835319519043, -1.4705744981765747, 9.624007225036621, -0.8621239066123962, -0.4994775354862213, 0.4338410794734955, 
424, 407391245, -8.899245262145996, -2.206723690032959, 3.7549281120300293, 0.3947654068470001, -1.4815325736999512, 9.576733589172363, -0.8869186043739319, -0.4697650372982025, 0.45179668068885803, 
425, 407399578, -8.899323463439941, -2.2077925205230713, 3.7555830478668213, 0.39371392130851746, -1.479508399963379, 9.625229835510254, -0.932025134563446, -0.6515749096870422, 0.330769419670105, 
426, 407407911, -8.899650573730469, -2.2069528102874756, 3.756490468978882, 0.4005019962787628, -1.459516167640686, 9.624714851379395, -0.9410797953605652, -0.4523857831954956, 0.4048585891723633, 
427, 407416244, -8.89958381652832, -2.2066547870635986, 3.757897138595581, 0.3972975015640259, -1.4697303771972656, 9.575139045715332, -0.9113416075706482, -0.504357099533081, 0.45598462224006653, 
428, 407424577, -8.899520874023438, -2.206653118133545, 3.758898973464966, 0.40929996967315674, -1.4564261436462402, 9.636245727539062, -0.8941032290458679, -0.5526142716407776, 0.39804521203041077, 
429, 407432910, -8.899405479431152, -2.2077231407165527, 3.7600247859954834, 0.406603068113327, -1.465381383895874, 9.588950157165527, -0.9072945713996887, -0.6627554893493652, 0.39602166414260864, 
430, 407441243, -8.898823738098145, -2.206450939178467, 3.76096510887146, 0.41434988379478455, -1.4667905569076538, 9.595002174377441, -0.8317710161209106, -0.4003504812717438, 0.4134521782398224, 
431, 407449576, -8.897696495056152, -2.2066891193389893, 3.7609024047851562, 0.41441407799720764, -1.5057380199432373, 9.598278045654297, -0.791825532913208, -0.5398072004318237, 0.2593953311443329, 
432, 407457909, -8.897929191589355, -2.2056803703308105, 3.7622218132019043, 0.41805505752563477, -1.4713183641433716, 9.624836921691895, -0.9279909133911133, -0.4397067427635193, 0.45513930916786194, 
433, 407466242, -8.897887229919434, -2.2056689262390137, 3.76271915435791, 0.4017251133918762, -1.4701809883117676, 9.57008171081543, -0.919051468372345, -0.5236701965332031, 0.3462788164615631, 
434, 407474575, -8.898209571838379, -2.204991340637207, 3.7628374099731445, 0.408484548330307, -1.466504454612732, 9.60164737701416, -0.9440767765045166, -0.4559974670410156, 0.3066536486148834, 
435, 407482908, -8.898704528808594, -2.204840898513794, 3.763678789138794, 0.38182592391967773, -1.4726344347000122, 9.604029655456543, -0.9804744124412537, -0.5130658745765686, 0.39228200912475586, 
436, 407491241, -8.899518966674805, -2.204219102859497, 3.764092206954956, 0.3962034285068512, -1.4486796855926514, 9.597192764282227, -1.0022082328796387, -0.46889421343803406, 0.341450572013855, 
437, 407499574, -8.900059700012207, -2.204078197479248, 3.7652392387390137, 0.4097649157047272, -1.4736359119415283, 9.615845680236816, -0.9852516055107117, -0.5195847153663635, 0.4200350344181061, 
438, 407507907, -8.899450302124023, -2.2044997215270996, 3.766261577606201, 0.40334880352020264, -1.4650381803512573, 9.602742195129395, -0.8277495503425598, -0.6029334664344788, 0.39352428913116455, 
439, 407516240, -8.9003324508667, -2.2051498889923096, 3.7672202587127686, 0.4068322479724884, -1.4857885837554932, 9.609272003173828, -1.0276174545288086, -0.6087990999221802, 0.3818697929382324, 
440, 407524573, -8.90142822265625, -2.2056305408477783, 3.768357992172241, 0.4089924097061157, -1.4800877571105957, 9.581483840942383, -1.0322792530059814, -0.6126668453216553, 0.406561940908432, 
441, 407532906, -8.901476860046387, -2.2062368392944336, 3.769911766052246, 0.406374454498291, -1.4563474655151367, 9.610015869140625, -0.9241102933883667, -0.6155100464820862, 0.453640878200531, 
442, 407541239, -8.902186393737793, -2.2066919803619385, 3.77085280418396, 0.4281548857688904, -1.4752953052520752, 9.58739185333252, -0.987531304359436, -0.6056230068206787, 0.38286879658699036, 
443, 407549572, -8.902507781982422, -2.2076194286346436, 3.771627902984619, 0.4065389931201935, -1.4771407842636108, 9.605853080749512, -0.9601752161979675, -0.6380249261856079, 0.3570239841938019, 
444, 407557905, -8.902920722961426, -2.207427978515625, 3.7718350887298584, 0.39465096592903137, -1.4660109281539917, 9.60275650024414, -0.9545913338661194, -0.515537679195404, 0.3088436424732208, 
445, 407566238, -8.903332710266113, -2.208115577697754, 3.772116184234619, 0.39763370156288147, -1.4724770784378052, 9.612140655517578, -0.9742117524147034, -0.6008074879646301, 0.30069831013679504, 
446, 407574571, -8.9034423828125, -2.2081923484802246, 3.7734196186065674, 0.40692490339279175, -1.457470417022705, 9.585795402526855, -0.913902997970581, -0.5684950947761536, 0.4341612756252289, 
447, 407582904, -8.904020309448242, -2.2073519229888916, 3.7740044593811035, 0.3963819444179535, -1.4555821418762207, 9.604959487915039, -0.9923977851867676, -0.4238899350166321, 0.3607124388217926, 
448, 407591237, -8.904611587524414, -2.207296371459961, 3.775205135345459, 0.3947296440601349, -1.4708963632583618, 9.571019172668457, -0.9715479016304016, -0.5495790243148804, 0.42323678731918335, 
449, 407599570, -8.904749870300293, -2.2068397998809814, 3.77610182762146, 0.39645346999168396, -1.474050760269165, 9.593628883361816, -0.9389666318893433, -0.4773980975151062, 0.39716148376464844, 
450, 407607903, -8.904603958129883, -2.2078468799591064, 3.777078866958618, 0.3992860019207001, -1.4422634840011597, 9.61569595336914, -0.8833324909210205, -0.6717589497566223, 0.3775666356086731, 
451, 407616236, -8.90481185913086, -2.208341598510742, 3.7786672115325928, 0.4000295400619507, -1.4510185718536377, 9.603155136108398, -0.9431160688400269, -0.6020369529724121, 0.4589942693710327, 
452, 407624569, -8.904648780822754, -2.2078301906585693, 3.7785465717315674, 0.38213348388671875, -1.4750664234161377, 9.595674514770508, -0.8875588178634644, -0.47189104557037354, 0.27567315101623535, 
453, 407632902, -8.90477466583252, -2.2080914974212646, 3.778791904449463, 0.38973718881607056, -1.4728777408599854, 9.585140228271484, -0.9395685195922852, -0.5486697554588318, 0.30424588918685913, 
454, 407641235, -8.905292510986328, -2.208019256591797, 3.779576063156128, 0.3831345736980438, -1.4752309322357178, 9.576354026794434, -0.9641197323799133, -0.5399224758148193, 0.3744160532951355, 
455, 407649568, -8.904369354248047, -2.208576202392578, 3.7799582481384277, 0.4223470091819763, -1.470703125, 9.610767364501953, -0.8144813776016235, -0.5896652936935425, 0.32792624831199646, 
456, 407657901, -8.904812812805176, -2.2079288959503174, 3.780564069747925, 0.41952139139175415, -1.47732675075531, 9.609543800354004, -0.9562178254127502, -0.4684971868991852, 0.3638502061367035, 
457, 407666234, -8.904909133911133, -2.207397937774658, 3.78143572807312, 0.3942575454711914, -1.467112421989441, 9.615095138549805, -0.9332802891731262, -0.46623027324676514, 0.39134708046913147, 
458, 407674567, -8.90442943572998, -2.2076313495635986, 3.7822673320770264, 0.41108793020248413, -1.4754955768585205, 9.618691444396973, -0.845372200012207, -0.5785743594169617, 0.37554311752319336, 
459, 407682900, -8.904092788696289, -2.2081446647644043, 3.7827231884002686, 0.4204584062099457, -1.451068639755249, 9.605295181274414, -0.8837167620658875, -0.5828007459640503, 0.3246220052242279, 
460, 407691233, -8.904156684875488, -2.2075886726379395, 3.78344464302063, 0.41477933526039124, -1.4613044261932373, 9.579846382141113, -0.909971296787262, -0.4814707636833191, 0.37690064311027527, 
461, 407699566, -8.904828071594238, -2.2072741985321045, 3.7848899364471436, 0.41797637939453125, -1.4631998538970947, 9.610424041748047, -1.0006330013275146, -0.5024104118347168, 0.4469684362411499, 
462, 407707899, -8.905487060546875, -2.206829786300659, 3.785984992980957, 0.4063887596130371, -1.4560256004333496, 9.590152740478516, -0.9796804189682007, -0.5021286010742188, 0.41884398460388184, 
463, 407716232, -8.905985832214355, -2.2075963020324707, 3.786613702774048, 0.397090345621109, -1.471060872077942, 9.619230270385742, -0.983048677444458, -0.6153051257133484, 0.3358410596847534, 
464, 407724565, -8.906274795532227, -2.206965446472168, 3.7866952419281006, 0.3942432403564453, -1.4730921983718872, 9.591948509216309, -0.9408493041992188, -0.4617093801498413, 0.30311882495880127, 
465, 407732898, -8.906147956848145, -2.206604242324829, 3.7875375747680664, 0.4102158546447754, -1.466590404510498, 9.614530563354492, -0.9072563052177429, -0.4865168333053589, 0.3840982913970947, 
466, 407741231, -8.906267166137695, -2.207411050796509, 3.7888050079345703, 0.4017036557197571, -1.4609395265579224, 9.535748481750488, -0.9145306348800659, -0.6534191370010376, 0.415578156709671, 
467, 407749564, -8.90679931640625, -2.208045244216919, 3.790447235107422, 0.41467177867889404, -1.470617413520813, 9.601046562194824, -0.9816911220550537, -0.619044840335846, 0.461402028799057, 
468, 407757897, -8.906204223632812, -2.2083446979522705, 3.7907798290252686, 0.41040846705436707, -1.4559541940689087, 9.581632614135742, -0.8333334922790527, -0.5755518078804016, 0.31324928998947144, 
469, 407766230, -8.906497955322266, -2.2098937034606934, 3.7924411296844482, 0.39882785081863403, -1.474487066268921, 9.61598014831543, -0.9537715911865234, -0.7286736965179443, 0.45125874876976013, 
470, 407774563, -8.907092094421387, -2.210017442703247, 3.7935988903045654, 0.397426575422287, -1.463757872581482, 9.608450889587402, -0.9718040227890015, -0.5704289674758911, 0.4151427149772644, 
471, 407782896, -8.907710075378418, -2.2101521492004395, 3.7943925857543945, 0.40366384387016296, -1.4766258001327515, 9.567536354064941, -0.9972133636474609, -0.5456088185310364, 0.367602676153183, 
472, 407791229, -8.908255577087402, -2.2095773220062256, 3.7948198318481445, 0.4051155745983124, -1.4739506244659424, 9.572421073913574, -0.9689480662345886, -0.4740298092365265, 0.34317949414253235, 
473, 407799562, -8.908607482910156, -2.2095799446105957, 3.7954742908477783, 0.42475011944770813, -1.4825555086135864, 9.616775512695312, -0.965246856212616, -0.5269104242324829, 0.3589194416999817, 
474, 407807895, -8.908974647521973, -2.209453582763672, 3.7957022190093994, 0.420200914144516, -1.4770334959030151, 9.584480285644531, -0.9492891430854797, -0.5235805511474609, 0.3093303143978119, 
475, 407816228, -8.908612251281738, -2.209709644317627, 3.7970802783966064, 0.3986350893974304, -1.4735000133514404, 9.587005615234375, -0.8766471743583679, -0.568226158618927, 0.4324066936969757, 
476, 407824561, -8.909165382385254, -2.2099008560180664, 3.7980124950408936, 0.4174470603466034, -1.4761536121368408, 9.619722366333008, -0.9685767292976379, -0.5745272636413574, 0.38694146275520325, 
477, 407832894, -8.910308837890625, -2.209275960922241, 3.7989368438720703, 0.4159950315952301, -1.468400001525879, 9.62106704711914, -1.0586491823196411, -0.45561322569847107, 0.4007091224193573, 
478, 407841227, -8.910065650939941, -2.208892345428467, 3.799689769744873, 0.3986493945121765, -1.460889458656311, 9.58248519897461, -0.8734838962554932, -0.5030508041381836, 0.3766061067581177, 
479, 407849560, -8.910194396972656, -2.2091636657714844, 3.8001039028167725, 0.39445066452026367, -1.464301347732544, 9.594501495361328, -0.9404906034469604, -0.5539206266403198, 0.3223295211791992, 
480, 407857893, -8.909882545471191, -2.209679365158081, 3.8007514476776123, 0.3895584046840668, -1.4649380445480347, 9.603693962097168, -0.8654153347015381, -0.6069676876068115, 0.34809741377830505, 
481, 407866226, -8.909808158874512, -2.2097434997558594, 3.8012986183166504, 0.4088490903377533, -1.4683140516281128, 9.592583656311035, -0.9144026041030884, -0.5315465927124023, 0.34444737434387207, 
482, 407874559, -8.910537719726562, -2.21036434173584, 3.8016154766082764, 0.40243324637413025, -1.457763671875, 9.580167770385742, -0.992654025554657, -0.6140499711036682, 0.30510392785072327, 
483, 407882892, -8.910635948181152, -2.210631847381592, 3.803276538848877, 0.40026557445526123, -1.4834781885147095, 9.611960411071777, -0.9307188391685486, -0.5766788721084595, 0.47700104117393494, 
484, 407891225, -8.910616874694824, -2.2107343673706055, 3.803896427154541, 0.4000513553619385, -1.4650667905807495, 9.604744911193848, -0.9003018736839294, -0.5574297904968262, 0.35165780782699585, 
485, 407899558, -8.91093921661377, -2.2106878757476807, 3.8046212196350098, 0.4039207398891449, -1.4621840715408325, 9.557727813720703, -0.9620835185050964, -0.5212369561195374, 0.3583431541919708, 
486, 407907891, -8.911334991455078, -2.209763288497925, 3.804324150085449, 0.40543028712272644, -1.4695801734924316, 9.586912155151367, -0.9557822942733765, -0.41970202326774597, 0.26208484172821045, 
487, 407916224, -8.9111909866333, -2.2099709510803223, 3.8048043251037598, 0.426838755607605, -1.4556822776794434, 9.59295654296875, -0.9063724875450134, -0.548080563545227, 0.3325752317905426, 
488, 407924557, -8.910871505737305, -2.2102138996124268, 3.805377721786499, 0.4077621102333069, -1.4706460237503052, 9.610459327697754, -0.8642498850822449, -0.5731441378593445, 0.3452158272266388, 
489, 407932890, -8.911229133605957, -2.2101693153381348, 3.8055551052093506, 0.4180767834186554, -1.4607608318328857, 9.60586166381836, -0.9685254096984863, -0.5117979645729065, 0.30036526918411255, 
490, 407941223, -8.911293983459473, -2.209714412689209, 3.8063223361968994, 0.41124555468559265, -1.460109829902649, 9.588242530822754, -0.9110470414161682, -0.49532803893089294, 0.3795389235019684, 
491, 407949556, -8.911824226379395, -2.2090866565704346, 3.806544303894043, 0.4101869463920593, -1.4508326053619385, 9.619672775268555, -0.9880691766738892, -0.44543153047561646, 0.32521113753318787, 
492, 407957889, -8.911980628967285, -2.2086181640625, 3.8079795837402344, 0.40095943212509155, -1.4863964319229126, 9.606181144714355, -0.917809247970581, -0.5049846172332764, 0.46019813418388367, 
493, 407966222, -8.912062644958496, -2.208853006362915, 3.808458089828491, 0.4149578809738159, -1.4704456329345703, 9.594852447509766, -0.9340613484382629, -0.5522813200950623, 0.34079739451408386, 
494, 407974555, -8.91193962097168, -2.2092154026031494, 3.8089780807495117, 0.4028981924057007, -1.4733139276504517, 9.604951858520508, -0.8885577917098999, -0.5863354206085205, 0.3349573016166687, 
495, 407982888, -8.91219425201416, -2.209439277648926, 3.809333562850952, 0.3936137855052948, -1.4681925773620605, 9.648784637451172, -0.9561536908149719, -0.5451734066009521, 0.30530890822410583, 
496, 407991221, -8.912261009216309, -2.2099592685699463, 3.8104255199432373, 0.4073687195777893, -1.4721122980117798, 9.59321403503418, -0.9094207286834717, -0.6167523860931396, 0.40073472261428833, 
497, 407999554, -8.912322044372559, -2.209739923477173, 3.811603307723999, 0.40520140528678894, -1.4665974378585815, 9.590030670166016, -0.92741459608078, -0.5095184445381165, 0.42390280961990356, 
498, 408007887, -8.913019180297852, -2.209657669067383, 3.8125851154327393, 0.4039424955844879, -1.483864426612854, 9.602648735046387, -0.9855589270591736, -0.5433291792869568, 0.39857029914855957, 
499, 408016220, -8.912891387939453, -2.209540605545044, 3.8125786781311035, 0.40939271450042725, -1.476332426071167, 9.610265731811523, -0.9108037948608398, -0.49910619854927063, 0.28083452582359314, 
500, 408024553, -8.913019180297852, -2.2101428508758545, 3.813112258911133, 0.4192427098751068, -1.4555249214172363, 9.607513427734375, -0.918552041053772, -0.6157149076461792, 0.3333052396774292, 
501, 408032886, -8.912458419799805, -2.2103328704833984, 3.8134448528289795, 0.41251900792121887, -1.4651812314987183, 9.586370468139648, -0.8584355115890503, -0.5427913069725037, 0.31283947825431824, 
502, 408041219, -8.912471771240234, -2.2105112075805664, 3.814197540283203, 0.3898945748806, -1.4853236675262451, 9.585103988647461, -0.9037598371505737, -0.5691098570823669, 0.3665909171104431, 
503, 408049552, -8.91270923614502, -2.211073160171509, 3.8150150775909424, 0.3908027410507202, -1.4826699495315552, 9.596060752868652, -0.9504930973052979, -0.5960689187049866, 0.3683711290359497, 
504, 408057885, -8.912383079528809, -2.2104830741882324, 3.8170056343078613, 0.4050869643688202, -1.4784210920333862, 9.590639114379883, -0.8581664562225342, -0.5018724799156189, 0.5275507569313049, 
505, 408066218, -8.912572860717773, -2.210665702819824, 3.81791353225708, 0.40768343210220337, -1.4651955366134644, 9.604780197143555, -0.9459976553916931, -0.5526399612426758, 0.38808128237724304, 
506, 408074551, -8.912947654724121, -2.2101995944976807, 3.819122552871704, 0.42125236988067627, -1.4647592306137085, 9.621975898742676, -0.9446529746055603, -0.500835120677948, 0.4331238865852356, 
507, 408082884, -8.912734031677246, -2.210751533508301, 3.820430040359497, 0.414972186088562, -1.4621984958648682, 9.598929405212402, -0.8950125575065613, -0.6038299798965454, 0.41662830114364624, 
508, 408091217, -8.912457466125488, -2.2102794647216797, 3.821536064147949, 0.40697503089904785, -1.472062110900879, 9.589886665344238, -0.8671954870223999, -0.49860668182373047, 0.4203679859638214, 
509, 408099550, -8.911845207214355, -2.2097971439361572, 3.82248854637146, 0.4148648977279663, -1.477791666984558, 9.614178657531738, -0.8474725484848022, -0.4743243455886841, 0.4010035991668701, 
510, 408107883, -8.911687850952148, -2.209303140640259, 3.823073387145996, 0.40275514125823975, -1.473363995552063, 9.608914375305176, -0.8851766586303711, -0.48725956678390503, 0.35917559266090393, 
511, 408116216, -8.912117958068848, -2.2102105617523193, 3.824774980545044, 0.4324040114879608, -1.4730206727981567, 9.586670875549316, -0.9698830246925354, -0.6521640419960022, 0.4568682610988617, 
512, 408124549, -8.912588119506836, -2.2090210914611816, 3.82523250579834, 0.42452123761177063, -1.4656389951705933, 9.583515167236328, -0.9608795642852783, -0.40233558416366577, 0.35670381784439087, 
513, 408132882, -8.913531303405762, -2.2083051204681396, 3.825982093811035, 0.3960600793361664, -1.4559683799743652, 9.573951721191406, -1.0354939699172974, -0.4428573548793793, 0.3864675760269165, 
514, 408141215, -8.913201332092285, -2.207943916320801, 3.826899528503418, 0.41542312502861023, -1.465603232383728, 9.580418586730957, -0.8627642393112183, -0.5086218118667603, 0.3957527279853821, 
515, 408149548, -8.912830352783203, -2.2080156803131104, 3.8273346424102783, 0.4195568859577179, -1.4390517473220825, 9.56115436553955, -0.8793367743492126, -0.5304964184761047, 0.332459956407547, 
516, 408157881, -8.913592338562012, -2.2077760696411133, 3.8284175395965576, 0.4189777672290802, -1.4460043907165527, 9.588994026184082, -0.9927821159362793, -0.5256808996200562, 0.41176164150238037, 
517, 408166214, -8.912862777709961, -2.2075259685516357, 3.8280887603759766, 0.39985841512680054, -1.473006248474121, 9.584573745727539, -0.8403518199920654, -0.4774237275123596, 0.24247713387012482, 
518, 408174547, -8.912839889526367, -2.207782030105591, 3.8286080360412598, 0.4153655767440796, -1.4666904211044312, 9.613199234008789, -0.9014161229133606, -0.5748090147972107, 0.3369424343109131, 
519, 408182880, -8.91334056854248, -2.208357810974121, 3.828986167907715, 0.38851380348205566, -1.4648879766464233, 9.598628997802734, -0.9843037724494934, -0.5886406898498535, 0.31053414940834045, 
520, 408191213, -8.9129638671875, -2.2076468467712402, 3.829636335372925, 0.3994004428386688, -1.4674128293991089, 9.60159683227539, -0.8580513000488281, -0.46279802918434143, 0.3709581792354584, 
521, 408199546, -8.91321086883545, -2.207332134246826, 3.830688953399658, 0.3989143669605255, -1.4803166389465332, 9.601591110229492, -0.9514920115470886, -0.4959428310394287, 0.4098661541938782, 
522, 408207879, -8.913403511047363, -2.207134962081909, 3.8315117359161377, 0.42299768328666687, -1.4709964990615845, 9.609472274780273, -0.9256088137626648, -0.5262572169303894, 0.3819338381290436, 
523, 408216212, -8.913511276245117, -2.2063403129577637, 3.8322014808654785, 0.40387070178985596, -1.4550241231918335, 9.609871864318848, -0.9355215430259705, -0.4323810636997223, 0.37740013003349304, 
524, 408224545, -8.912980079650879, -2.2055459022521973, 3.83351469039917, 0.4057450294494629, -1.4692296981811523, 9.585081100463867, -0.8368170261383057, -0.4648470878601074, 0.4498499631881714, 
525, 408232878, -8.912670135498047, -2.205252170562744, 3.835172653198242, 0.4082413613796234, -1.473893404006958, 9.628835678100586, -0.8817956447601318, -0.5087499022483826, 0.4734407067298889, 
526, 408241211, -8.912687301635742, -2.205270767211914, 3.8352370262145996, 0.4134700894355774, -1.464694857597351, 9.609322547912598, -0.9079990386962891, -0.5379501581192017, 0.28817296028137207, 
527, 408249544, -8.91257095336914, -2.205042839050293, 3.8364434242248535, 0.4025194048881531, -1.4521058797836304, 9.602706909179688, -0.9070000648498535, -0.5094671249389648, 0.426412969827652, 
528, 408257877, -8.913442611694336, -2.2053945064544678, 3.8379836082458496, 0.41413530707359314, -1.4766401052474976, 9.647439956665039, -1.0035144090652466, -0.6041117310523987, 0.4554082155227661, 
529, 408266210, -8.913896560668945, -2.2063651084899902, 3.8384182453155518, 0.39827030897140503, -1.4631354808807373, 9.626461029052734, -0.9788991212844849, -0.6350536942481995, 0.2973940670490265, 
530, 408274543, -8.913538932800293, -2.205801010131836, 3.838886022567749, 0.40487951040267944, -1.4624273777008057, 9.591876983642578, -0.861842155456543, -0.476552814245224, 0.3466246426105499, 
531, 408282876, -8.912788391113281, -2.206165313720703, 3.8393304347991943, 0.40492933988571167, -1.451662302017212, 9.601875305175781, -0.8341019153594971, -0.5657415390014648, 0.3286178410053253, 
532, 408291209, -8.91347599029541, -2.206223726272583, 3.8405654430389404, 0.4048580527305603, -1.451977014541626, 9.616031646728516, -0.9829078912734985, -0.5639614462852478, 0.4256317913532257, 
533, 408299542, -8.912975311279297, -2.2063207626342773, 3.84208345413208, 0.41479337215423584, -1.4738433361053467, 9.590710639953613, -0.8585891127586365, -0.5546250939369202, 0.4702645540237427, 
534, 408307875, -8.913610458374023, -2.206416368484497, 3.8423993587493896, 0.4228832423686981, -1.4603029489517212, 9.603778839111328, -0.9815887212753296, -0.5521661043167114, 0.3151191174983978, 
535, 408316208, -8.913750648498535, -2.2068238258361816, 3.8431079387664795, 0.4250648319721222, -1.4848157167434692, 9.603135108947754, -0.9395685195922852, -0.5747449994087219, 0.3611094653606415, 
536, 408324541, -8.913599014282227, -2.2058565616607666, 3.8431808948516846, 0.4112958312034607, -1.4840648174285889, 9.597084999084473, -0.8880327343940735, -0.4213157296180725, 0.3067304491996765, 
537, 408332874, -8.913512229919434, -2.206484079360962, 3.84525728225708, 0.3849087953567505, -1.4667619466781616, 9.599644660949707, -0.9066926836967468, -0.6260375380516052, 0.5037679672241211, 
538, 408341207, -8.913216590881348, -2.2065927982330322, 3.8454277515411377, 0.4007165729999542, -1.4769262075424194, 9.59680461883545, -0.8700388073921204, -0.5500656962394714, 0.2972916066646576, 
539, 408349540, -8.913561820983887, -2.206387519836426, 3.846437692642212, 0.4014819264411926, -1.4677705764770508, 9.600173950195312, -0.9624804854393005, -0.5085194110870361, 0.4078682065010071, 
540, 408357873, -8.913637161254883, -2.205413341522217, 3.8474020957946777, 0.3870835304260254, -1.4930559396743774, 9.618972778320312, -0.9113544821739197, -0.4375167489051819, 0.4129655063152313, 
541, 408366206, -8.912862777709961, -2.205967426300049, 3.84828782081604, 0.4204724431037903, -1.476482629776001, 9.611302375793457, -0.8287228941917419, -0.5974007248878479, 0.3853020966053009, 
542, 408374539, -8.912281036376953, -2.2057278156280518, 3.848733425140381, 0.41647449135780334, -1.470309853553772, 9.57305908203125, -0.833615243434906, -0.5132836699485779, 0.3385305106639862, 
543, 408382872, -8.912128448486328, -2.2059645652770996, 3.849804639816284, 0.42922094464302063, -1.479372501373291, 9.60104751586914, -0.9026967883110046, -0.5621811747550964, 0.412376344203949, 
544, 408391205, -8.911928176879883, -2.205717086791992, 3.8507022857666016, 0.4080837070941925, -1.4722052812576294, 9.571139335632324, -0.878786027431488, -0.5215955376625061, 0.3905658423900604, 
545, 408399538, -8.912322044372559, -2.206120491027832, 3.851583957672119, 0.42212504148483276, -1.460260033607483, 9.594194412231445, -0.9697932600975037, -0.5760257244110107, 0.36894741654396057, 
546, 408407871, -8.911781311035156, -2.2057816982269287, 3.851861000061035, 0.43197470903396606, -1.4678850173950195, 9.617448806762695, -0.8409921526908875, -0.500399649143219, 0.3202163577079773, 
547, 408416204, -8.911558151245117, -2.2059261798858643, 3.8523449897766113, 0.40628862380981445, -1.4845582246780396, 9.612061500549316, -0.8975227475166321, -0.5394101142883301, 0.32928380370140076, 
548, 408424537, -8.912147521972656, -2.2049734592437744, 3.853010416030884, 0.41222548484802246, -1.4703168869018555, 9.606067657470703, -0.9736483097076416, -0.43329036235809326, 0.3768494427204132, 
549, 408432870, -8.91224479675293, -2.2056772708892822, 3.8540234565734863, 0.39405012130737305, -1.4789789915084839, 9.62158203125, -0.932755172252655, -0.6161888837814331, 0.3911806046962738, 
550, 408441203, -8.912651062011719, -2.2062795162200928, 3.854520082473755, 0.40556618571281433, -1.471983551979065, 9.585975646972656, -0.9530929327011108, -0.6155228614807129, 0.32729873061180115, 
551, 408449536, -8.912961959838867, -2.2055163383483887, 3.855473756790161, 0.41176801919937134, -1.46985924243927, 9.603565216064453, -0.9586895108222961, -0.4407441318035126, 0.4106089770793915, 
552, 408457869, -8.913856506347656, -2.2066891193389893, 3.85668683052063, 0.4017036557197571, -1.487455129623413, 9.627963066101074, -1.0072797536849976, -0.6957851648330688, 0.403641939163208, 
553, 408466202, -8.914277076721191, -2.207041025161743, 3.8575687408447266, 0.40382835268974304, -1.4474564790725708, 9.620010375976562, -0.9727005958557129, -0.5719403028488159, 0.38056352734565735, 
554, 408474535, -8.914562225341797, -2.2076456546783447, 3.858142614364624, 0.4125041961669922, -1.4422706365585327, 9.606295585632324, -0.9384544491767883, -0.616995632648468, 0.33722421526908875, 
555, 408482868, -8.915453910827637, -2.207878589630127, 3.859128952026367, 0.3957807719707489, -1.4450386762619019, 9.593777656555176, -1.0290135145187378, -0.5601704716682434, 0.39468973875045776, 
556, 408491201, -8.916481971740723, -2.20873761177063, 3.859511137008667, 0.3963390290737152, -1.4634430408477783, 9.569766998291016, -1.0274381637573242, -0.6427123546600342, 0.30958643555641174, 
557, 408499534, -8.916274070739746, -2.209054708480835, 3.8605711460113525, 0.38690441846847534, -1.461354374885559, 9.593021392822266, -0.8970872759819031, -0.5725037455558777, 0.4052043557167053, 
558, 408507867, -8.916293144226074, -2.2092177867889404, 3.860769271850586, 0.3973761796951294, -1.465309977531433, 9.611425399780273, -0.9071665406227112, -0.5568405985832214, 0.30017322301864624, 
559, 408516200, -8.91675090789795, -2.210280418395996, 3.8615517616271973, 0.4100867807865143, -1.4807243347167969, 9.601447105407715, -0.9787840247154236, -0.6551225781440735, 0.34940382838249207, 
560, 408524533, -8.91800308227539, -2.2104761600494385, 3.8623158931732178, 0.4126618206501007, -1.4599024057388306, 9.598621368408203, -1.0526169538497925, -0.5710437297821045, 0.3670647442340851, 
561, 408532866, -8.91885757446289, -2.2119901180267334, 3.862924098968506, 0.4149078130722046, -1.4762251377105713, 9.61864948272705, -1.025645136833191, -0.7037510275840759, 0.3226497173309326, 
562, 408541199, -8.918593406677246, -2.2119088172912598, 3.863032102584839, 0.3947437107563019, -1.4793223142623901, 9.606882095336914, -0.8747518062591553, -0.5271666049957275, 0.29455092549324036, 
563, 408549532, -8.918530464172363, -2.211486339569092, 3.8640646934509277, 0.39771267771720886, -1.4654816389083862, 9.613393783569336, -0.9142104983329773, -0.4816628694534302, 0.4047817885875702, 
564, 408557865, -8.918537139892578, -2.211437940597534, 3.8643887042999268, 0.4154297113418579, -1.4865108728408813, 9.608176231384277, -0.9061163663864136, -0.5352221727371216, 0.3203060030937195, 
565, 408566198, -8.919034004211426, -2.211737871170044, 3.8650615215301514, 0.4063529968261719, -1.479537010192871, 9.573386192321777, -0.9826899766921997, -0.5607211589813232, 0.34808462858200073, 
566, 408574531, -8.918903350830078, -2.2117815017700195, 3.8650896549224854, 0.40739017724990845, -1.4722768068313599, 9.60392951965332, -0.8914521932601929, -0.54058837890625, 0.28225603699684143, 
567, 408582864, -8.9185209274292, -2.2115626335144043, 3.8651235103607178, 0.40982192754745483, -1.4641940593719482, 9.632424354553223, -0.8788244128227234, -0.4887707829475403, 0.30269625782966614, 
568, 408591197, -8.91860580444336, -2.212099075317383, 3.8651905059814453, 0.4201293885707855, -1.4566264152526855, 9.601210594177246, -0.9170922040939331, -0.5995780825614929, 0.277415007352829, 
569, 408599530, -8.918814659118652, -2.21183705329895, 3.865182399749756, 0.4275323450565338, -1.4814324378967285, 9.607060432434082, -0.9516456723213196, -0.4824441075325012, 0.2881985604763031, 
570, 408607863, -8.918703079223633, -2.2112650871276855, 3.865330934524536, 0.40635278820991516, -1.4766972064971924, 9.61211109161377, -0.8924768567085266, -0.46920162439346313, 0.30869001150131226, 
571, 408616196, -8.91781234741211, -2.2113916873931885, 3.8659892082214355, 0.4243137836456299, -1.4610038995742798, 9.601825714111328, -0.8163512349128723, -0.5407164096832275, 0.35438573360443115, 
572, 408624529, -8.916948318481445, -2.2108585834503174, 3.866241455078125, 0.4022258222103119, -1.4702668190002441, 9.641946792602539, -0.8007521629333496, -0.4748879075050354, 0.320088267326355, 
573, 408632862, -8.916521072387695, -2.2110788822174072, 3.867027759552002, 0.42196792364120483, -1.461418867111206, 9.585040092468262, -0.8724977374076843, -0.5545738339424133, 0.3629409372806549, 
574, 408641195, -8.916343688964844, -2.2108700275421143, 3.867745876312256, 0.4046863913536072, -1.4632785320281982, 9.614715576171875, -0.8819750547409058, -0.5225816965103149, 0.36824309825897217, 
575, 408649528, -8.916297912597656, -2.2114691734313965, 3.867926836013794, 0.41583767533302307, -1.482433795928955, 9.587806701660156, -0.9192692041397095, -0.5864378809928894, 0.28814730048179626, 
576, 408657861, -8.917167663574219, -2.211580514907837, 3.8682594299316406, 0.382097452878952, -1.4481000900268555, 9.586410522460938, -1.0095466375350952, -0.5543304085731506, 0.31784704327583313, 
577, 408666194, -8.916577339172363, -2.211897611618042, 3.868734836578369, 0.40422120690345764, -1.4661967754364014, 9.611030578613281, -0.8527363538742065, -0.5608108639717102, 0.34077179431915283, 
578, 408674527, -8.915510177612305, -2.2127199172973633, 3.8699088096618652, 0.41055914759635925, -1.4632354974746704, 9.620903015136719, -0.7731656432151794, -0.6536752581596375, 0.40479451417922974, 
579, 408682860, -8.914726257324219, -2.213052988052368, 3.86989164352417, 0.412003755569458, -1.451669454574585, 9.601139068603516, -0.8318350315093994, -0.554356038570404, 0.27799126505851746, 
580, 408691193, -8.91511344909668, -2.21256947517395, 3.870757818222046, 0.42149558663368225, -1.4512903690338135, 9.607369422912598, -0.949519693851471, -0.49315086007118225, 0.3926277756690979, 
581, 408699526, -8.915154457092285, -2.2126352787017822, 3.8716773986816406, 0.42280423641204834, -1.4642083644866943, 9.606860160827637, -0.9272608160972595, -0.5379245281219482, 0.3848666846752167, 
582, 408707859, -8.915433883666992, -2.2126381397247314, 3.872056007385254, 0.41577357053756714, -1.4717618227005005, 9.630130767822266, -0.9387617111206055, -0.5419716238975525, 0.32510867714881897, 
583, 408716192, -8.914917945861816, -2.2142114639282227, 3.8727211952209473, 0.39224758744239807, -1.4522273540496826, 9.59326457977295, -0.8615477085113525, -0.713036298751831, 0.33103838562965393, 
584, 408724525, -8.915164947509766, -2.2134952545166016, 3.873560905456543, 0.38730472326278687, -1.4726415872573853, 9.603569984436035, -0.9313207268714905, -0.46445009112358093, 0.3944079577922821, 
585, 408732858, -8.916082382202148, -2.213658571243286, 3.87496280670166, 0.41862013936042786, -1.4833351373672485, 9.61263370513916, -1.0317413806915283, -0.5549067854881287, 0.4172430634498596, 
586, 408741191, -8.916458129882812, -2.214155912399292, 3.8767645359039307, 0.39998698234558105, -1.4680423736572266, 9.614937782287598, -0.9431672692298889, -0.6266010999679565, 0.4850439727306366, 
587, 408749524, -8.917695999145508, -2.2136611938476562, 3.8784875869750977, 0.4192710518836975, -1.4684572219848633, 9.62256908416748, -1.0671402215957642, -0.4877718687057495, 0.49426504969596863, 
588, 408757857, -8.919408798217773, -2.2145094871520996, 3.8797988891601562, 0.40511542558670044, -1.4573919773101807, 9.59245491027832, -1.1056640148162842, -0.6586701273918152, 0.41949716210365295, 
589, 408766190, -8.920036315917969, -2.2148215770721436, 3.88063383102417, 0.4157518446445465, -1.4691367149353027, 9.582256317138672, -0.9982123374938965, -0.5662282705307007, 0.3725462257862091, 
590, 408774523, -8.919862747192383, -2.214043617248535, 3.881420135498047, 0.4095572233200073, -1.4962316751480103, 9.594443321228027, -0.8817700147628784, -0.4565480947494507, 0.38901618123054504, 
591, 408782856, -8.920381546020508, -2.2142114639282227, 3.8824989795684814, 0.4141785502433777, -1.4727275371551514, 9.61201286315918, -0.9839453101158142, -0.5540871620178223, 0.40261736512184143, 
592, 408791189, -8.921058654785156, -2.2137420177459717, 3.8819518089294434, 0.4220179319381714, -1.4901375770568848, 9.596412658691406, -0.9898620843887329, -0.4681001305580139, 0.2239324450492859, 
593, 408799522, -8.920784950256348, -2.2136268615722656, 3.8822290897369385, 0.40166789293289185, -1.4831920862197876, 9.606110572814941, -0.8927329182624817, -0.5040112733840942, 0.3075372874736786, 
594, 408807855, -8.920160293579102, -2.212966203689575, 3.882896900177002, 0.40374937653541565, -1.4620769023895264, 9.619479179382324, -0.8283899426460266, -0.46784406900405884, 0.37164971232414246, 
595, 408816188, -8.920525550842285, -2.2128958702087402, 3.8839499950408936, 0.39047369360923767, -1.4760963916778564, 9.612032890319824, -0.9661561250686646, -0.5253607630729675, 0.40555015206336975, 
596, 408824521, -8.92060661315918, -2.2130274772644043, 3.8847784996032715, 0.40267643332481384, -1.4819045066833496, 9.585546493530273, -0.9116490483283997, -0.5646017789840698, 0.377348929643631, 
597, 408832854, -8.919266700744629, -2.212827205657959, 3.885307788848877, 0.4014457166194916, -1.476711630821228, 9.621953010559082, -0.7642518877983093, -0.5005789399147034, 0.34465232491493225, 
598, 408841187, -8.918760299682617, -2.2126452922821045, 3.8860085010528564, 0.40407150983810425, -1.462627649307251, 9.600790023803711, -0.8430413007736206, -0.5257065296173096, 0.3657072186470032, 
599, 408849520, -8.917718887329102, -2.2131564617156982, 3.887965679168701, 0.39342066645622253, -1.4721122980117798, 9.580403327941895, -0.792401909828186, -0.6082099676132202, 0.4913962483406067, 
600, 408857853, -8.917733192443848, -2.2136855125427246, 3.8883237838745117, 0.4049796760082245, -1.4820904731750488, 9.610330581665039, -0.9066542387008667, -0.6033304929733276, 0.3120838403701782, 
601, 408866186, -8.917344093322754, -2.214257001876831, 3.8886640071868896, 0.4057807922363281, -1.48164701461792, 9.610702514648438, -0.8787347674369812, -0.5876801013946533, 0.30813926458358765, 
602, 408874519, -8.917706489562988, -2.2138307094573975, 3.8891234397888184, 0.40264809131622314, -1.4648021459579468, 9.59795093536377, -0.9476755261421204, -0.4924849271774292, 0.3429105877876282, 
